Timestamp,AccX,AccY,AccZ,GyroX,GyroY,GyroZ,Label
0.0,-1.357927,8.395368,5.255386,-0.043448,-0.300622,-0.262634,0.0
0.1,-1.702134,8.319844,4.409015,0.022022,-0.340893,-0.244224,0.0
0.2,-1.437368,8.531609,5.132605,0.022419,-0.239612,-0.06747,0.0
0.3,-1.349193,8.389595,5.116812,0.116309,-0.200578,-0.049236,0.0
0.4,-1.510828,7.80778,5.233701,0.029444,-0.257907,-0.032254,0.0
0.5,-1.4802,8.37787,4.141976,0.045082,-0.320399,-0.054856,0.0
0.6,-1.797249,8.550153,5.229753,0.122142,-0.073334,0.247706,0.0
0.7,-1.72367,8.242077,4.11733,-0.033231,0.149601,0.519571,0.0
0.8,-1.516571,8.58796,5.307161,-0.167499,0.408485,0.725677,0.0
0.9,-0.702174,8.58485,4.514897,-0.006506,0.548862,0.669477,0.0
1.0,0.088774,8.303812,4.69412,0.007117,0.456774,0.413158,0.0
1.1,-0.15015,8.295767,5.759674,0.01489,0.281494,0.11679,0.0
1.2,-0.345882,8.39462,4.596014,0.048167,0.135062,-0.052046,0.0
1.3,-0.698465,8.631509,4.694239,0.031612,0.038943,-0.0883,0.0
1.4,-1.02341,8.882277,4.16734,-0.052198,0.207725,0.152105,0.0
1.5,-0.115813,8.521679,4.983412,-0.073609,0.367618,0.268902,0.0
1.6,0.477488,7.988319,4.386403,0.014111,0.171806,-0.092241,0.0
1.7,-0.398525,8.638329,4.908995,0.032864,-0.238451,-0.477605,0.0
1.8,-0.743689,8.772686,4.699504,-0.013867,-0.267009,-0.373513,0.0
1.9,-1.71374,8.416395,4.484987,-0.018815,-0.183657,-0.13778,0.0
2.0,-1.041357,8.688818,5.224608,0.009224,0.045387,0.165056,0.0
2.1,-0.675015,8.228438,4.245825,0.055283,0.149754,0.210871,0.0
2.2,-0.261775,8.570851,5.109753,0.011545,0.036285,0.060292,0.0
2.3,-0.950848,8.295916,4.413262,-0.06983,0.007865,0.062156,0.0
2.4,-1.055713,8.412446,4.384249,0.004459,0.103969,0.159039,0.0
2.5,-1.433899,8.66465,5.25404,-0.078191,0.339305,0.407202,0.0
2.6,-0.725982,8.505168,4.826802,0.034208,0.482766,0.426811,0.0
2.7,0.149432,8.235857,4.986642,0.027672,0.251676,0.127182,0.0
2.8,-0.353898,8.781181,4.555695,-0.002535,0.04951,-0.100731,0.0
2.9,-0.816072,8.48794,4.211487,0.044288,0.135184,0.004276,0.0
3.0,-0.519242,8.403952,5.144449,0.006597,0.23561,0.112033,0.0
3.1,-0.244187,8.65472,6.072027,-0.020922,0.158,-0.021564,0.0
3.2,-0.690928,8.227122,3.568416,-0.143798,-0.025687,-0.18158,0.0
3.3,-0.760918,8.726504,4.928018,-0.069242,-0.103816,-0.190223,0.0
3.4,-0.965384,8.658668,4.568975,0.003604,-0.058307,-0.091569,0.0
3.5,-0.869432,8.418788,4.530331,-0.05959,0.053787,0.054367,0.0
3.6,-0.720987,8.282158,4.040281,0.021838,0.139392,0.091668,0.0
3.7,-0.604906,8.616435,4.720082,0.06744,0.09954,0.019181,0.0
3.8,-0.284626,8.215756,5.432425,-0.128159,-0.08772,-0.146699,0.0
3.9,-0.917049,8.666445,4.829912,-0.014722,-0.203326,-0.232098,0.0
4.0,-1.209452,8.476335,5.242196,0.013897,0.055955,0.075595,0.0
4.1,-0.773959,8.281081,4.669474,-0.013225,0.20519,0.187658,0.0
4.2,-0.125743,8.335159,5.135237,-0.00507,0.006719,-0.085582,0.0
4.3,-1.003909,8.635936,3.862734,-0.105374,-0.150212,-0.219636,0.0
4.4,-1.149751,8.817552,5.933243,-0.079626,-0.179777,-0.175715,0.0
4.5,-1.072463,8.352387,3.937509,0.023457,-0.032803,-0.010721,0.0
4.6,-0.819901,8.38469,4.359244,-0.019426,0.044899,0.025992,0.0
4.7,-0.815953,8.361569,6.228667,-0.060246,-0.037644,-0.06563,0.0
4.8,-1.144726,8.46808,4.318327,-0.039492,-0.003849,-0.022816,0.0
4.9,-0.469472,8.173045,5.111787,-0.139858,-0.006384,-0.039034,0.0
5.0,-0.593899,8.679964,4.08742,-0.098991,-0.123486,-0.235488,0.0
5.1,-1.408057,8.009136,4.469673,0.059834,-0.360471,-0.451765,0.0
5.2,-2.074816,8.835856,4.733123,-0.057085,-0.408027,-0.261053,0.0
5.3,-1.828954,8.475976,4.778706,-0.041264,-0.154335,0.092088,0.0
5.4,-1.437249,8.733444,3.865605,0.003726,0.041508,0.269788,0.0
5.5,-0.749911,8.163354,5.081398,0.004612,0.117714,0.247003,0.0
5.6,-0.84012,8.63115,4.579982,0.057452,0.069455,0.110719,0.0
5.7,-1.27035,8.952746,5.365067,0.044563,0.053878,0.073854,0.0
5.8,-0.852084,8.073384,3.487061,-0.04893,0.14224,0.147555,0.0
5.9,-0.268894,8.402546,4.269693,-0.016608,0.002481,-0.068188,0.0
6.0,-0.711386,8.771251,5.497989,-0.002596,-0.172356,-0.278127,0.0
6.1,-1.167697,9.041759,3.835216,0.051221,-0.210076,-0.239154,0.0
6.2,-1.400639,8.638209,4.482953,0.031856,-0.075808,-0.026298,0.0
6.3,-0.808535,8.571689,5.144928,0.009988,0.064202,0.09841,0.0
6.4,-0.803988,7.99454,4.662056,-0.032437,0.014997,-0.016127,0.0
6.5,-0.781855,8.733444,4.645665,0.02642,0.016524,-0.085552,0.0
6.6,-0.755773,8.292088,4.242116,0.03485,-0.062522,-0.18833,0.0
6.7,-0.707199,8.644191,5.266244,-0.020647,-0.248286,-0.351614,0.0
6.8,-1.2335,8.508279,4.83063,0.020159,-0.360624,-0.375254,0.0
6.9,-1.364268,8.652207,4.988437,0.055222,-0.292482,-0.187872,0.0
7.0,-1.618386,8.370452,4.579862,0.081275,-0.16811,-0.017929,0.0
7.1,-1.074378,8.289336,4.33714,0.051236,-0.124197,0.052992,0.0
7.2,-1.109432,8.386604,5.192186,-0.013592,-0.134146,0.024312,0.0
7.3,-0.975673,8.62158,4.521478,0.040348,-0.132985,-0.0135,0.0
7.4,-1.252045,8.645627,4.783611,-0.010537,-0.153816,-0.018051,0.0
7.5,-1.121875,8.202357,4.632864,0.05058,-0.018143,0.101587,0.0
7.6,-0.850649,8.501938,5.336234,0.002077,0.062949,0.134237,0.0
7.7,-0.9204,8.425488,3.839762,-0.074587,0.044196,0.040256,0.0
7.8,-1.206701,8.219106,5.071588,-0.168965,-0.052107,-0.06805,0.0
7.9,-1.028914,8.688937,5.327141,0.029902,-0.074342,-0.137384,0.0
8.0,-0.931646,8.221739,4.539304,-0.045571,-0.11863,-0.15125,0.0
8.1,-0.845025,8.692167,4.26401,0.024801,-0.072845,-0.107298,0.0
8.2,-0.681954,8.183095,5.128776,-0.065118,-0.115973,-0.178831,0.0
8.3,-0.801237,8.445228,5.020501,-0.035125,-0.398162,-0.441044,0.0
8.4,-1.25025,8.939436,4.322484,0.062652,-0.467999,-0.412257,0.0
8.5,-1.327897,8.047541,5.748756,0.12764,-0.315023,-0.17938,0.0
8.6,-1.629153,8.519645,4.773203,-0.026389,-0.318383,-0.066554,0.0
8.7,-1.098425,8.36806,4.129892,0.006017,-0.268872,0.046395,0.0
8.8,-1.243191,8.400961,5.188357,0.031979,-0.142301,0.126816,0.0
8.9,-1.662174,8.656754,5.032345,-0.006017,-0.049175,0.215055,0.0
9.0,-1.209572,8.053763,3.562195,-0.010721,0.082864,0.273667,0.0
9.1,-0.978784,8.025647,3.466482,0.03262,0.188727,0.316886,0.0
9.2,-0.717488,8.441041,7.208976,-0.061972,0.163498,0.221316,0.0
9.3,-0.569492,7.792347,4.974439,-0.06524,-0.016341,-0.020464,0.0
9.4,-1.591466,8.893643,3.896592,0.018448,-0.102687,-0.040714,0.0
9.5,-1.257129,8.80484,4.814359,0.111406,0.101251,0.220522,0.0
9.6,0.036491,8.46126,3.817868,-0.00223,0.26087,0.295078,0.0
9.7,-0.514217,8.19781,6.054679,0.070769,0.109192,-0.037202,0.0
9.8,-0.919442,8.809655,5.153661,0.055894,-0.081825,-0.149265,0.0
9.9,-0.864527,8.204151,4.445745,-0.040287,0.008613,0.025962,0.0
10.0,-0.552024,8.456594,5.388158,0.075197,0.048411,0.041539,0.0
10.1,-0.638166,8.564391,4.728577,0.040256,-0.012737,-0.022999,0.0
10.2,-1.200958,8.185487,4.495396,0.066004,0.014478,0.034086,0.0
10.3,-1.17691,8.778668,4.905167,-0.013164,0.17373,0.242147,0.0
10.4,-0.624407,8.192307,5.101737,0.016493,0.259251,0.242238,0.0
10.5,-0.239402,8.384451,5.01763,-0.045387,0.144042,0.066004,0.0
10.6,-0.320758,8.412207,4.690531,0.028161,0.106199,-0.03427,0.0
10.7,-0.782333,8.55458,4.945605,-0.070188,0.055711,-0.067531,0.0
10.8,-0.951596,8.68789,4.958826,0.041539,0.0176,-0.099838,0.0
10.9,-1.202513,8.25464,4.156094,-0.003879,0.03259,-0.004581,0.0
11.0,-0.432742,8.243035,4.965585,0.019242,0.090713,0.061514,0.0
11.1,-0.686979,8.623494,5.721957,-0.07422,-0.08772,-0.113529,0.0
11.2,-0.779582,8.602437,4.073182,0.017409,-0.092363,-0.075228,0.0
11.3,-1.070788,8.534361,5.040242,-0.061422,-0.007605,0.046701,0.0
11.4,-1.015394,8.296395,4.827878,0.022999,0.02022,0.085246,0.0
11.5,-0.661376,8.506365,5.228557,-0.006628,0.012859,0.088392,0.0
11.6,-1.033221,8.358488,4.322873,0.026817,0.101189,0.173089,0.0
11.7,-0.882832,8.489256,4.701418,-0.054489,0.226936,0.280509,0.0
11.8,-0.704567,8.377033,5.346044,-0.021166,0.276233,0.235794,0.0
11.9,-0.202792,8.572048,5.69408,-0.075258,0.227456,0.098441,0.0
12.0,-0.277418,8.348857,4.602296,-0.016188,0.158672,-0.051542,0.0
12.1,-0.51326,8.52802,4.529374,0.015791,0.023732,-0.202319,0.0
12.2,-1.036451,8.449416,4.886742,0.029932,-0.038301,-0.187749,0.0
12.3,-0.946481,8.631509,4.205147,0.005803,0.083383,-0.013439,0.0
12.4,-0.305444,8.400961,4.947998,0.03766,0.080848,-0.061026,0.0
12.5,-0.707916,8.422736,4.845107,-0.015669,-0.120768,-0.245782,0.0
12.6,-1.03669,8.388519,5.232505,-0.01628,-0.173272,-0.200242,0.0
12.7,-0.849811,8.306564,4.459264,0.118172,-0.044807,-0.061056,0.0
12.8,-0.771326,8.486505,4.984728,0.055466,-0.065821,-0.060079,0.0
12.9,-0.908196,8.206425,5.49739,0.009102,-0.090255,-0.054611,0.0
13.0,-0.952822,8.579585,4.846782,-0.01347,-0.067256,0.004306,0.0
13.1,-0.909153,8.242795,5.020022,-0.077702,-0.067226,0.011515,0.0
13.2,-1.162314,8.296963,4.613661,-0.180663,-0.092241,0.034094,0.0
13.3,-1.42672,8.624211,4.574239,0.031979,0.067287,0.135551,0.0
13.4,-0.953301,8.044789,5.666084,-0.106901,0.202807,0.272323,0.0
13.5,-0.754337,8.279406,4.638128,-0.035002,0.221591,0.151189,0.0
13.6,-0.749552,8.470951,5.272465,-0.018082,0.057941,-0.064385,0.0
13.7,-1.0002,8.152107,4.616951,-0.066523,-0.024954,-0.110139,0.0
13.8,-0.693321,8.532925,5.085705,0.018082,-0.011087,-0.103358,0.0
13.9,-0.801954,8.118369,4.798447,-0.040103,-0.155526,-0.231884,0.0
14.0,-1.046621,8.590353,4.813641,0.024801,-0.283289,-0.277455,0.0
14.1,-1.404108,8.63139,4.536194,-0.036255,-0.17428,-0.061025,0.0
14.2,-1.247139,8.144331,4.935077,0.057513,-0.03372,0.080237,0.0
14.3,-1.142692,8.657233,5.298068,-0.027367,0.003115,0.140957,0.0
14.4,-1.302892,8.277222,4.179065,-0.028673,0.063034,0.177227,0.0
14.5,-1.093759,8.151509,5.01739,-9.2e-05,0.159405,0.23219,0.0
14.6,-0.674417,8.352267,4.587161,-0.089308,0.151342,0.175166,0.0
14.7,-0.734237,8.430273,4.942016,0.044074,0.149081,0.063469,0.0
14.8,-0.629312,8.314101,5.28754,-0.069883,0.048289,-0.031735,0.0
14.9,-0.713898,8.714421,4.765307,0.009316,-0.1091,-0.200364,0.0
15.0,-1.022453,8.373802,4.515735,0.012248,-0.117317,-0.141141,0.0
15.1,-1.438326,8.468917,4.794259,0.001344,-0.01121,0.016096,0.0
15.2,-1.17033,8.230951,4.584289,-0.058979,0.083322,0.14789,0.0
15.3,-0.787478,8.254042,5.547281,-0.012492,0.048045,0.060628,0.0
15.4,-1.423281,8.755338,4.157679,0.051007,0.000993,0.020426,0.0
15.5,-0.97675,8.331689,4.996214,-0.037568,0.183351,0.237046,0.0
15.6,-0.314656,8.107003,5.28419,-0.036224,0.217101,0.146668,0.0
15.7,-0.661377,8.419027,5.051727,-0.02022,-0.116186,-0.219636,0.0
15.8,-1.268316,8.409575,3.672026,0.018051,-0.132313,-0.138483,0.0
15.9,-0.977707,8.468439,5.477171,-0.097403,0.055069,0.083108,0.0
16.0,-0.722513,8.147322,4.942495,-0.042791,0.041753,0.05342,0.0
16.1,-1.314258,8.331569,5.54405,-0.129198,0.037599,0.071563,0.0
16.2,-1.138027,8.135956,4.473023,-0.016005,0.188238,0.203509,0.0
16.3,-0.461456,8.623374,5.101139,-0.056108,0.177975,0.134818,0.0
16.4,-0.6134,8.233583,5.221618,0.016799,0.121868,-0.024618,0.0
16.5,-0.607179,8.249256,4.9407,-0.029566,0.011851,-0.125777,0.0
16.6,-0.761636,8.500742,4.558925,0.051129,-0.07309,-0.224706,0.0
16.7,-0.817747,8.376823,4.733302,-0.002749,-0.206244,-0.262176,0.0
16.8,-1.594457,8.387442,4.791986,0.035033,-0.209649,-0.20409,0.0
16.9,-1.324786,8.400243,5.284788,0.050977,-0.050335,0.06582,0.0
17.0,-1.290449,8.691809,4.512744,-0.080359,0.087292,0.217865,0.0
17.1,-0.672024,8.145408,5.009972,-0.012981,0.11188,0.150823,0.0
17.2,-0.792982,8.308239,4.858746,-0.003574,0.040348,0.022022,0.0
17.3,-1.123311,8.530772,4.848218,0.004093,0.067348,0.040042,0.0
17.4,-0.914058,8.509236,4.694,-0.003848,0.012462,-0.004123,0.0
17.5,-0.915733,8.252606,5.121,0.075808,0.011545,-0.024465,0.0
17.6,-0.980339,8.295916,5.037011,-0.038637,-0.012645,0.006292,0.0
17.7,-0.626022,8.185697,5.485396,-0.009965,-0.04906,-0.032796,0.0
17.8,-0.979981,8.433503,4.587639,0.03204,-0.015333,-0.006353,0.0
17.9,-1.343809,8.456475,5.078885,-0.050396,0.001527,0.062339,0.0
18.0,-1.16686,8.166823,4.625206,-0.049144,0.13778,0.207633,0.0
18.1,-0.884268,8.34449,4.923233,-0.106688,0.239245,0.277149,0.0
18.2,-0.043909,8.070034,5.141458,-0.018815,0.14334,0.040531,0.0
18.3,-0.822653,8.412805,4.529972,-0.000152,-0.063316,-0.200455,0.0
18.4,-1.224048,8.607103,4.815436,0.030177,-0.091294,-0.111574,0.0
18.5,-0.765823,8.006744,5.286104,-0.101953,0.036927,0.039523,0.0
18.6,-0.812004,8.274859,4.842953,-0.045785,-0.029596,-0.032437,0.0
18.7,-1.305404,8.076135,4.216153,-0.107085,-0.14618,-0.056016,0.0
18.8,-1.263052,8.637492,5.898188,-0.030146,-0.036652,0.133168,0.0
18.9,-1.361815,8.134999,4.020989,0.060399,0.193606,0.319673,0.0
19.0,-1.140898,8.240761,4.288177,0.070096,0.397368,0.470488,0.0
19.1,-0.804826,9.373763,7.872147,0.034667,0.554696,0.451796,0.0
19.2,0.465643,8.637492,8.341739,0.231182,0.308151,0.017349,0.0
19.3,0.471027,7.741978,2.307877,0.391962,-0.093493,-0.509034,0.0
19.4,-0.66353,7.950751,3.722873,0.172844,-0.196301,-0.477421,0.0
19.5,-1.953501,9.489695,4.826443,0.031551,-0.281272,-0.37162,0.0
19.6,-1.655474,7.567421,4.141856,-0.279684,-0.194255,-0.06524,0.0
19.7,-1.361516,7.723074,4.018865,-0.290344,0.131244,0.268017,0.0
19.8,-0.227797,7.371569,4.634179,-0.248469,0.240589,0.188696,0.0
19.9,-0.678844,8.390552,6.333562,-0.235061,-0.016768,-0.180144,0.0
20.0,-0.822383,8.382955,6.188587,0.03417,-0.188643,-0.374728,0.0
20.1,-0.684706,7.71458,6.225167,0.110811,-0.35644,-0.497672,0.0
20.2,-1.139941,8.340064,5.293283,0.334968,-0.575343,-0.58362,0.0
20.3,-1.798805,9.385967,3.95713,0.408363,-0.503994,-0.327668,0.0
20.4,-1.820579,8.290413,5.459584,0.099113,-0.195874,0.160261,0.0
20.5,-2.148037,8.42788,3.231387,-0.092516,0.090927,0.475894,0.0
20.6,-1.359841,8.298189,6.058507,-0.11753,0.311999,0.592783,0.0
20.7,-0.521755,8.101619,4.597569,-0.028069,0.264718,0.347399,0.0
20.8,-0.462174,8.027082,5.989474,-0.041172,0.107756,0.091324,0.0
20.9,-0.941456,8.351669,5.125905,0.030207,0.087384,0.033995,0.0
21.0,-0.797647,8.488419,4.743891,0.06857,0.104213,0.041356,0.0
21.1,-0.66688,8.292566,5.670631,0.02193,0.017196,-0.045937,0.0
21.2,-0.629761,8.295318,5.011468,0.012141,-0.096058,-0.145882,0.0
21.3,-0.825404,8.606146,4.899065,0.072479,-0.115606,-0.121012,0.0
21.4,-1.306601,8.619904,4.515974,-0.005437,-0.043005,0.023824,0.0
21.5,-1.201915,8.34138,5.431229,-0.07309,0.078435,0.186711,0.0
21.6,-1.158844,7.908877,4.838527,-0.02813,0.129076,0.203693,0.0
21.7,-0.36347,8.612247,4.939623,0.048869,0.030146,0.06353,0.0
21.8,-1.331367,8.242556,4.697948,-0.024068,0.01854,0.118935,0.0
21.9,-1.435095,8.591549,5.329295,-0.012492,0.241627,0.388968,0.0
22.0,-1.488814,8.31123,5.188596,0.085399,0.447214,0.526382,2.0
22.1,-0.899223,8.425727,5.380142,0.069364,0.465998,0.486584,2.0
22.2,-0.187717,8.244471,4.807181,0.021472,0.436096,0.390648,2.0
22.3,0.22014,8.702248,4.305436,0.092852,0.319788,0.141644,2.0
22.4,-0.100857,7.845826,5.311229,0.000305,-0.069852,-0.217285,2.0
22.5,-0.802194,8.595617,5.222575,-0.010385,0.03146,0.036316,2.0
22.6,-0.987638,8.347601,5.420461,-0.021594,0.298713,0.337289,2.0
22.7,-0.575474,8.535796,5.369494,0.023396,0.443702,0.439059,2.0
22.8,-0.872303,8.122078,4.87071,-0.052412,0.535912,0.493487,2.0
22.9,-0.10672,8.507442,4.747001,0.020922,0.460409,0.34636,2.0
23.0,-0.312502,8.392945,5.239085,0.053328,0.368107,0.185611,2.0
23.1,-0.971606,8.669555,4.519085,0.033292,0.431851,0.286954,2.0
23.2,-0.045823,8.256315,4.959723,0.017257,0.476078,0.32776,2.0
23.3,0.008255,8.523234,5.775795,0.045296,0.441289,0.203571,2.0
23.4,-0.892882,8.372247,4.854678,0.052992,0.5116,0.256869,2.0
23.5,-0.34995,8.182975,4.966902,0.003635,0.557597,0.29178,2.0
23.6,0.664457,8.064111,4.360022,-0.038904,0.368962,0.037072,2.0
23.7,0.112822,8.501699,5.021697,0.01912,0.05959,-0.295842,2.0
23.8,-0.694038,8.233942,4.316293,-0.044837,-0.036682,-0.22828,2.0
23.9,-0.330329,8.150433,6.011129,-0.075014,0.10403,-0.013866,2.0
24.0,-0.94325,9.365269,12.632788,0.164628,0.163773,0.049144,2.0
24.1,-1.572802,8.692886,0.609093,0.452804,0.405004,0.336251,2.0
24.2,-0.290728,6.660063,2.72387,0.240039,0.476474,0.410074,2.0
24.3,-0.025723,6.386324,0.442552,-0.017532,0.343275,0.276264,2.0
24.4,0.037926,8.561041,5.691448,-0.43573,0.30305,0.173608,2.0
24.5,-2.872225,9.982138,8.015597,-0.721523,0.18778,0.102503,2.0
24.6,0.775035,7.609655,5.01404,-0.475222,0.5167,0.611384,2.0
24.7,0.518166,7.395976,4.859942,0.097097,0.433958,0.245384,2.0
24.8,0.127118,6.229864,7.242925,0.041577,0.204296,0.013095,2.0
24.9,0.261176,7.994659,4.566941,0.526657,0.201524,-0.056902,2.0
25.0,0.501775,9.708758,6.000721,0.223271,-0.246209,-0.266337,2.0
25.1,-1.081556,8.447382,3.658865,-0.161788,-0.015913,-0.028405,2.0
25.2,-0.867159,8.050293,5.753542,-0.019823,0.221775,0.233564,2.0
25.3,-0.749552,8.695159,4.263053,0.083291,0.171134,0.275775,2.0
25.4,-1.329691,8.238967,5.487939,-0.007972,0.553413,0.68145,2.0
25.5,-0.446381,8.479445,5.59741,0.009285,0.829066,0.840367,2.0
25.6,0.658624,8.219465,5.667759,0.030879,0.712421,0.571922,2.0
25.7,0.296949,8.616674,4.705486,0.097464,0.5302,0.250638,2.0
25.8,0.09667,8.23789,5.082834,0.106474,0.482919,0.173149,2.0
25.9,0.674776,7.958827,4.756932,0.064942,0.372093,0.027527,2.0
26.0,0.398405,8.43123,4.952784,0.064416,0.253601,-0.106687,2.0
26.1,-0.217747,8.602556,4.983053,0.164506,0.162643,-0.204701,2.0
26.2,0.539223,8.604231,5.350591,0.015913,-0.054581,-0.276386,2.0
26.3,1.044108,8.002316,3.304129,0.023091,-0.167469,-0.40934,2.0
26.4,-0.131605,9.031709,4.888417,0.031521,-0.11017,-0.31148,2.0
26.5,-0.298983,8.19446,5.718487,0.004887,0.050152,-0.183321,2.0
26.6,-0.47318,8.566783,4.383292,-0.004246,-0.042852,-0.203662,2.0
26.7,-0.396969,8.918409,4.255396,-0.012675,-0.247431,-0.363159,2.0
26.8,-1.067917,8.413762,4.467639,0.038393,-0.287442,-0.318657,2.0
26.9,-1.414278,8.661659,4.742574,0.071929,-0.107634,-0.025473,2.0
27.0,-1.764108,8.774331,3.904937,0.00924,0.127365,0.266834,0.0
27.1,-1.11673,8.228678,4.65069,-0.040256,0.194163,0.32892,0.0
27.2,-1.298824,8.843155,4.604628,-0.022755,0.207725,0.306593,0.0
27.3,-2.067399,8.656395,4.50066,-0.043891,0.325163,0.448008,0.0
27.4,0.01017,8.382656,4.958527,-0.006048,0.48521,0.48973,0.0
27.5,-0.526421,8.189555,5.311588,0.05171,0.424612,0.237535,0.0
27.6,-0.180658,8.788838,5.200082,0.050061,0.140529,-0.068295,0.0
27.7,-0.385723,8.529934,4.446941,0.040806,0.050641,-0.147799,0.0
27.8,-0.515653,8.480044,4.668158,0.069241,0.147768,-0.049144,0.0
27.9,-0.065085,8.650173,4.162913,0.006109,0.00785,-0.198531,0.0
28.0,-0.208535,8.260143,5.079364,-0.052504,-0.241811,-0.364137,0.0
28.1,-0.529771,8.26134,5.407062,-0.013897,-0.146791,-0.228585,0.0
28.2,-1.483998,8.552846,4.17413,-0.023022,0.003398,-0.01447,0.0
28.3,-1.095075,8.50146,5.029354,0.022602,0.196118,0.149906,0.0
28.4,-0.227558,8.229156,5.023013,0.005375,0.133688,0.004917,0.0
28.5,0.039721,8.49141,5.006742,0.02981,-0.2277,-0.401308,0.0
28.6,-0.72335,8.466524,4.660859,0.033201,-0.417343,-0.505094,0.0
28.7,-1.353141,8.497033,4.89404,0.029138,-0.429682,-0.355859,0.0
28.8,-1.999562,8.60124,4.248337,0.029413,-0.346085,-0.095723,0.0
28.9,-2.325704,8.528738,4.455316,-0.065699,0.084574,0.449627,0.0
29.0,-0.982613,8.275338,5.618228,-0.049114,0.37953,0.601488,0.0
29.1,-0.091406,7.716494,4.865565,-0.093676,0.125655,0.168049,0.0
29.2,-1.132882,8.687861,4.422893,0.043341,-0.067592,-0.047159,0.0
29.3,-1.342972,8.443314,5.135476,-0.102687,0.146882,0.258182,0.0
29.4,-0.842423,8.388489,4.808377,-0.055436,0.322804,0.34407,0.0
29.5,-0.559681,8.239804,5.027799,-0.052229,0.230846,0.178922,0.0
29.6,-0.317049,8.411968,5.132724,-0.029138,0.131305,0.030818,0.0
29.7,-0.014357,8.399765,4.949314,0.080298,0.026878,-0.150181,0.0
29.8,-0.329372,8.356215,5.103771,0.039034,-0.186008,-0.316061,0.0
29.9,-0.532881,8.456355,5.014638,0.048778,-0.13045,-0.198073,0.0
30.0,-0.880678,8.283234,4.709314,-0.035949,-0.014691,-0.042974,0.0
30.1,-1.082274,8.28479,5.391747,-0.007697,-0.103694,-0.108887,0.0
30.2,-0.880439,8.403354,4.6209,-0.049022,-0.26032,-0.159222,0.0
30.3,-0.881037,8.268877,4.736234,-0.083322,-0.154518,0.017471,0.0
30.4,-0.943011,8.535677,5.226643,-0.069639,0.031917,0.186772,0.0
30.5,-1.548396,8.460662,4.705605,-0.000366,0.289703,0.392725,0.0
30.6,-1.30684,8.282157,4.786004,-0.052443,0.448772,0.482125,0.0
30.7,-0.630808,7.986943,5.621787,0.012828,0.503811,0.409165,0.0
30.8,0.037448,8.217073,5.142535,0.012217,0.134268,-0.037477,0.0
30.9,-0.319322,8.48136,4.665167,-0.008766,-0.167621,-0.331455,0.0
31.0,-1.054039,8.393304,5.423572,-0.005345,-0.04441,-0.123028,0.0
31.1,-0.838565,8.398568,4.683831,-0.019212,0.057849,0.031124,0.0
31.2,-0.558963,8.1813,4.818068,-0.061667,0.04328,-0.001222,0.0
31.3,-0.841197,8.327382,5.466762,0.027,0.027764,-0.056199,0.0
31.4,-0.838086,8.473463,4.725825,0.033445,0.011301,-0.060628,0.0
31.5,-0.817388,8.355976,5.056393,0.02248,-0.056871,-0.092546,0.0
31.6,-0.97005,8.344371,5.092405,-0.003177,-0.039554,-0.047311,0.0
31.7,-1.030708,8.359775,4.771438,-0.003207,-0.01573,-0.000802,0.0
31.8,-1.144367,8.31458,4.949673,0.011423,-0.018998,0.012492,0.0
31.9,-0.780299,8.477053,4.819384,-0.0073,0.007086,0.054642,0.0
32.0,-0.835334,8.354062,4.66397,-0.00281,0.087751,0.100273,0.0
32.1,-0.769412,8.348319,5.110232,-0.018448,0.113621,0.075289,0.0
32.2,-0.919203,8.542616,4.385685,0.050641,0.00956,-0.047434,0.0
32.3,-0.445783,8.357292,5.466523,-0.067714,-0.118202,-0.125869,0.0
32.4,-0.608734,8.501221,4.656672,-0.004337,-0.075839,-0.097158,0.0
32.5,-0.81332,8.361719,5.046463,-0.032284,-0.037904,-0.04722,0.0
32.6,-0.868475,8.663334,4.636812,0.048625,0.027153,-0.018631,0.0
32.7,-0.905683,8.132606,4.669354,-0.062553,-0.041142,-0.070922,0.0
32.8,-0.819691,8.84462,4.834249,0.041004,-0.130954,-0.173791,0.0
32.9,-0.812363,8.568219,4.105485,-0.005742,-0.151647,-0.142515,0.0
33.0,-0.574277,8.656874,4.908636,0.035552,-0.064233,-0.087629,0.0
33.1,-1.224527,8.356096,4.987121,0.014538,-0.094654,-0.119852,0.0
33.2,-1.297388,8.775079,4.673302,0.081673,-0.177242,-0.15183,0.0
33.3,-1.166501,8.338987,3.981657,0.010751,-0.130939,-0.022144,0.0
33.4,-1.648535,8.492008,5.058188,0.034728,0.109956,0.193125,0.0
33.5,-0.85998,8.49811,4.669474,0.012248,0.045051,0.138636,0.0
33.6,-0.242154,8.542257,4.25743,0.105435,-0.073945,-0.089217,0.0
33.7,-1.562035,8.493085,5.079484,0.029138,-0.208885,-0.144133,0.0
33.8,-1.832304,8.536275,4.376473,0.004582,0.056902,0.240895,0.0
33.9,-1.136591,8.606684,4.869843,-0.035506,0.30444,0.428369,0.0
34.0,-0.168455,8.053762,5.2209,-0.029963,0.077855,0.118569,0.0
34.1,-0.692483,8.463174,5.238846,-0.075717,-0.137139,-0.080268,0.0
34.2,-1.345245,8.53149,4.342375,0.090988,0.048014,0.107451,0.0
34.3,-0.746082,8.369256,5.155695,-0.049694,0.266154,0.340069,0.0
34.4,-0.406899,7.946803,5.013562,-0.028894,0.290252,0.235061,0.0
34.5,-0.346481,8.574441,4.831588,0.10907,-0.053237,-0.175166,0.0
34.6,-1.008336,8.768977,4.923233,0.013958,-0.124708,-0.112674,0.0
34.7,-1.406621,8.575757,4.312465,0.01295,0.335151,0.367618,0.0
34.8,-0.362154,8.441041,4.624728,0.008949,0.483866,0.388632,0.0
34.9,-0.610888,8.390313,5.521797,-0.037782,0.241292,0.052718,0.0
35.0,-0.763669,8.325946,4.675576,0.00843,0.13381,-0.054306,0.0
35.1,-0.844666,8.486594,5.553741,-0.010614,0.010346,-0.112246,0.0
35.2,0.322074,8.245068,4.085745,0.030574,-0.153693,-0.268689,0.0
35.3,-1.048774,8.906445,5.096234,-0.013592,-0.132405,-0.211481,0.0
35.4,-1.754537,8.545129,4.298706,0.015638,0.036041,0.03824,0.0
35.5,-1.374318,8.735597,4.696752,-0.087842,0.129412,0.2266,0.0
35.6,-0.6268,8.240163,4.653561,0.037232,0.166644,0.187657,0.0
35.7,-0.807936,8.767182,4.314977,0.020158,0.2474,0.21252,0.0
35.8,-0.534437,8.370333,5.282874,0.019089,0.182954,0.091904,0.0
35.9,-0.377228,8.297711,4.876692,-0.026481,0.156443,0.032773,0.0
36.0,-0.324586,8.422975,5.1941,-0.051404,0.250088,0.067531,0.0
36.1,-0.139382,8.109037,4.871069,0.025045,0.114354,-0.193156,0.0
36.2,-0.470788,8.567023,4.888656,0.04441,-0.311969,-0.569998,0.0
36.3,-1.61037,8.709127,4.288237,0.01718,-0.299247,-0.389083,0.0
36.4,-1.33364,8.818868,4.926224,-0.013867,0.058826,0.033109,0.0
36.5,-0.587199,8.108917,4.278965,-0.006384,0.134574,0.015088,0.0
36.6,-0.668315,8.428957,5.449534,-0.003085,-0.191995,-0.35253,0.0
36.7,-1.478286,8.231669,4.752744,0.099571,-0.311908,-0.398925,0.0
36.8,-1.335793,8.484231,4.516094,0.0562,-0.285671,-0.259007,0.0
36.9,-1.204308,8.317093,4.474818,0.03989,-0.322506,-0.260809,0.0
37.0,-1.650808,8.301181,5.287659,-0.016799,-0.426628,-0.250852,0.0
37.1,-1.852045,8.682237,4.693282,0.018937,-0.245965,0.005101,0.0
37.2,-1.915694,8.432785,4.655117,0.016616,-0.044837,0.229776,0.0
37.3,-1.337349,8.386843,4.456512,0.027458,-0.062919,0.181702,0.0
37.4,-1.466442,8.545129,4.668397,0.00675,-0.022083,0.200883,0.0
37.5,-1.304238,8.235497,4.893472,0.043562,0.154816,0.31429,0.0
37.6,-0.93021,8.256434,4.435815,-0.014447,0.134665,0.259404,0.0
37.7,-0.415274,8.547761,5.329654,-0.017013,0.064171,0.12089,0.0
37.8,-0.737947,8.339346,5.015117,0.046609,0.009346,-0.004398,0.0
37.9,-0.839282,8.53125,4.833741,0.027672,0.013042,0.002749,0.0
38.0,-0.902812,8.555777,4.611448,0.011637,-0.045845,-0.039034,0.0
38.1,-0.841436,8.582098,4.31402,0.020006,-0.134329,-0.077091,0.0
38.2,-0.936431,8.318767,4.576393,0.002718,-0.086773,0.01182,0.0
38.3,-0.8534,8.661061,5.03402,0.020006,-0.036255,0.07025,0.0
38.4,-1.167219,8.578748,5.045028,0.001466,-0.014508,0.119332,0.0
38.5,-1.46046,8.450014,4.819982,0.009621,0.092576,0.274034,0.0
38.6,-1.022184,8.728718,5.106582,0.026878,0.315206,0.481056,0.0
38.7,-0.513739,8.248538,4.445984,-0.042424,0.405736,0.483225,0.0
38.8,-0.179462,8.646345,4.334838,0.049724,0.45317,0.386005,0.0
38.9,-0.159242,8.759765,5.308597,0.015669,0.45201,0.254242,0.0
39.0,0.186162,8.477172,4.478167,0.00452,0.377362,0.097341,0.0
39.1,0.210329,8.565827,5.162874,0.067928,0.243399,-0.149082,0.0
39.2,0.30999,8.441998,4.438925,0.072846,-0.064202,-0.475802,0.0
39.3,0.29013,9.996854,9.733285,-0.022938,-0.452101,-0.807074,0.0
39.4,-1.310429,7.689934,0.559442,0.095112,-0.686093,-0.878759,0.0
39.5,-1.475654,8.302855,3.573083,0.42617,-0.287992,-0.352805,0.0
39.6,-1.855993,8.427521,4.08742,0.049816,-0.083414,-0.012034,0.0
39.7,-1.390708,8.415078,3.418985,-0.093462,-0.231579,-0.063713,0.0
39.8,-1.096361,8.673982,5.641827,-0.295697,-0.346169,-0.146111,0.0
39.9,-1.982334,7.485587,3.212005,-0.32104,-0.362243,-0.108306,0.0
40.0,-1.3669,8.411489,4.599125,-0.426292,-0.29065,0.11304,0.0
40.1,-0.926381,9.047861,6.68124,-0.0686,-0.103114,0.138788,0.0
40.2,-1.444188,8.34138,4.495516,-0.053939,-0.00843,0.263161,0.0
40.3,-1.726421,8.125906,4.863292,-0.033262,0.276355,0.509767,0.0
40.4,-0.955334,7.711828,5.050651,0.245323,0.472382,0.509614,0.0
40.5,-0.317887,10.49851,1.645664,0.408455,0.215605,0.109956,0.0
40.6,-0.179222,7.933882,6.427122,0.067012,-0.091049,-0.191415,0.0
40.7,-1.150948,8.129854,4.858507,-0.010965,-0.018998,-0.056505,0.0
40.8,-1.134198,8.849137,4.149035,0.008522,0.051771,0.09111,0.0
40.9,-0.348993,8.718608,4.703811,-0.038271,0.045845,0.057055,0.0
41.0,-0.941097,8.596574,4.430431,-0.008247,0.074098,0.059681,2.0
41.1,-1.464856,8.685647,4.76082,0.008896,0.141033,0.149013,2.0
41.2,-1.206581,8.695757,4.662654,-0.072418,0.215116,0.253142,2.0
41.3,-0.269192,8.314341,4.505446,-0.006048,0.178556,0.176968,2.0
41.4,0.116172,8.459465,4.860541,-0.03821,-0.010476,-0.061942,2.0
41.5,-1.225365,8.653643,4.211129,0.02471,0.02193,-0.039615,2.0
41.6,-0.637926,8.689296,4.548277,-0.030849,0.202654,0.206655,2.0
41.7,-0.281875,8.46461,4.723791,-0.009835,0.123945,0.060598,2.0
41.8,-0.766301,8.560084,5.15067,0.07758,-0.106077,-0.150303,2.0
41.9,-1.37671,8.762875,3.793581,-0.002596,-0.015394,0.085582,2.0
42.0,-1.064926,8.892447,5.005546,-0.032529,0.244804,0.380019,2.0
42.1,-0.866082,8.828798,3.908436,0.000153,0.36603,0.432828,2.0
42.2,-0.918724,8.772447,3.922435,-0.003268,0.410807,0.449627,2.0
42.3,-0.800998,8.438738,4.210321,-0.044441,0.47216,0.488577,2.0
42.4,-0.840838,8.723514,4.624608,-0.020159,0.53753,0.504849,2.0
42.5,-0.592583,8.802596,6.186523,-0.034758,0.591897,0.515203,2.0
42.6,0.19334,8.206425,2.91709,0.066371,0.61395,0.445198,2.0
42.7,0.097149,8.596574,5.626603,0.070708,0.45934,0.236924,2.0
42.8,0.321954,8.575398,3.73723,-0.001802,0.39465,0.117286,2.0
42.9,-0.261057,8.675897,4.24738,-0.014111,0.344864,0.045784,2.0
43.0,-0.140459,8.152945,5.196373,-0.121318,0.40708,0.121135,2.0
43.1,-0.338824,8.272706,4.253601,-0.079657,0.349781,0.091874,2.0
43.2,0.141057,9.08459,5.2008,-0.056688,0.114568,-0.114262,2.0
43.3,-0.106241,7.795218,4.575077,0.014997,0.116156,-0.112552,2.0
43.4,-0.119043,8.607462,4.328018,0.058307,0.066004,-0.116309,2.0
43.5,-0.360838,8.439605,5.285386,0.019517,0.05287,-0.052657,2.0
43.6,-0.845564,8.898758,4.277918,0.014699,0.187459,0.128855,2.0
43.7,-0.56339,8.731769,4.856114,0.021961,0.224981,0.156198,2.0
43.8,-0.479881,8.337432,4.253362,-0.030574,0.1372,0.078832,2.0
43.9,-1.060977,8.806545,5.256314,0.051038,0.178831,0.148807,2.0
44.0,-0.738425,8.686545,3.251367,-0.047617,0.334662,0.356134,2.0
44.1,-0.540778,8.719924,5.719325,0.015852,0.494281,0.403843,2.0
44.2,-0.366102,8.460423,5.321159,0.085185,0.481972,0.287901,2.0
44.3,-0.096431,8.506963,4.129174,-0.004459,0.285304,0.079749,2.0
44.4,-0.873979,8.752227,5.515935,0.084574,0.284571,0.05681,2.0
44.5,-0.735913,8.676136,4.449334,-0.064263,0.256074,0.098807,2.0
44.6,-0.055872,8.391629,5.025765,0.070372,0.245629,0.034911,2.0
44.7,-0.393859,8.642995,5.259305,0.046548,0.152655,-0.05565,2.0
44.8,-0.889233,8.448459,3.845266,-0.018555,0.099953,-0.058376,2.0
44.9,-0.6402,8.602437,5.261817,-0.043463,0.104458,0.002504,2.0
45.0,-0.229711,8.428,4.638487,-0.025717,0.100976,0.015791,2.0
45.1,-0.311665,8.459585,4.480799,0.008491,0.144103,0.001924,2.0
45.2,-0.404746,8.207741,5.351548,0.010049,0.171409,0.019028,2.0
45.3,-0.547717,8.47466,4.807181,0.006781,0.165514,0.002107,2.0
45.4,-0.474377,8.521798,4.4741,-0.079015,0.027642,-0.11133,2.0
45.5,-0.688894,8.839326,4.911149,0.017929,-0.033597,-0.170217,2.0
45.6,-0.570928,8.529934,3.772405,0.032284,-0.015027,-0.096028,2.0
45.7,-0.531685,8.587122,4.78744,-0.024251,0.056353,-0.026695,2.0
45.8,-0.837967,8.19135,4.108955,-0.071502,0.048655,-0.042699,2.0
45.9,-1.344766,8.608299,5.09085,0.019975,-0.034147,-0.11976,2.0
46.0,-1.26027,8.430213,4.886742,-0.10862,-0.091248,-0.046846,0.0
46.1,-1.575554,8.829994,4.461777,-0.103419,0.206075,0.266307,0.0
46.2,-0.81679,8.34138,4.382933,-0.057971,0.405248,0.365542,0.0
46.3,-0.274217,9.580622,7.052725,0.023396,0.233778,0.035552,0.0
46.4,-0.262971,8.685827,5.57731,0.549259,-0.003451,-0.364686,0.0
46.5,-1.13671,7.727381,3.061377,0.048472,-0.455369,-0.546846,0.0
46.6,-0.65348,8.263733,2.32032,0.037812,-0.182343,-0.194225,0.0
46.7,-1.361875,9.239286,4.225246,-0.073976,-0.129534,-0.11188,0.0
46.8,-0.510868,8.060702,6.124549,-0.222966,-0.185184,-0.17541,0.0
46.9,-1.192104,8.380981,4.402435,-0.209527,-0.318474,-0.246148,0.0
47.0,-1.232782,7.999685,4.675336,-0.068447,-0.229502,-0.18103,0.0
47.1,-1.941178,8.146065,4.811218,0.030123,-0.153823,-0.057574,0.0
47.2,-1.662892,8.255837,4.211727,0.030391,-0.091599,0.068264,0.0
47.3,-1.194856,8.205707,3.639244,-0.011484,-0.033842,0.107329,0.0
47.4,-1.295833,8.783334,5.338029,-0.061117,-0.074006,0.036957,0.0
47.5,-1.257069,8.166345,3.387519,-0.087873,-0.102595,0.020769,0.0
47.6,-1.559163,7.379465,3.538865,-0.240925,-0.079412,0.087323,0.0
47.7,-0.910589,7.88447,2.829513,0.194133,-0.010751,0.157023,0.0
47.8,-1.722354,9.713903,5.683672,-0.297338,0.224554,0.217957,0.0
47.9,-0.778505,8.373922,5.991269,0.060476,0.178648,0.172264,0.0
48.0,-0.893958,7.116255,5.484349,0.232465,0.018998,-0.037751,0.0
48.1,-0.926022,9.093922,-1.38018,0.598128,-0.313038,-0.124952,0.0
48.2,-0.960479,8.423214,2.905006,0.103694,-0.022846,-0.062339,0.0
48.3,-0.718445,8.124829,4.071508,-0.005162,0.015699,0.026023,0.0
48.4,-0.941337,8.73129,3.741178,0.124494,-0.054733,-0.10122,0.0
48.5,-1.357628,8.264959,5.29083,0.129656,-0.093042,-0.094417,0.0
48.6,-0.962393,8.729615,4.950152,-0.03317,-0.036957,0.0759,0.0
48.7,-0.554776,8.232865,5.071229,0.053573,0.107848,0.134634,0.0
48.8,-1.107757,8.33468,5.062016,0.064721,0.038637,0.021655,0.0
48.9,-1.593141,8.495956,4.94764,0.033659,-0.016066,0.043127,0.0
49.0,-0.933679,8.587242,4.162435,0.046548,0.081917,0.173425,0.0
49.1,-0.697867,8.802955,4.671986,0.033994,0.176051,0.197279,0.0
49.2,-1.013121,8.270433,4.535835,0.014264,0.19114,0.172936,0.0
49.3,-1.085743,8.394022,5.289813,-0.019303,0.124922,0.119332,0.0
49.4,-0.385843,8.355617,4.807181,0.074312,0.112857,0.072693,0.0
49.5,-0.651446,8.332706,4.171886,-0.019433,0.052534,0.00733,0.0
49.6,-1.064567,8.630193,4.491807,-0.00116,0.041081,0.03485,0.0
49.7,-0.70014,8.545847,5.534838,0.007147,0.136254,0.144775,0.0
49.8,-0.968615,8.36112,3.651447,-0.028741,0.157573,0.146424,0.0
49.9,-0.580858,8.636774,4.944529,-0.007178,0.108551,0.1029,0.0
50.0,-0.673819,8.741938,4.596134,-0.011454,0.05681,0.053084,0.0
50.1,-0.43681,8.474899,5.023133,-0.074586,0.071471,0.09108,0.0
50.2,-1.019941,8.240761,5.079604,-0.044165,0.212367,0.201494,0.0
50.3,-1.029751,8.597771,4.896433,0.005314,0.350728,0.318841,0.0
50.4,-0.365863,8.378109,4.815077,0.005284,0.325897,0.209282,0.0
50.5,-0.289172,8.600881,4.611209,0.02138,0.247431,0.046762,0.0
50.6,-0.355932,8.532806,4.769614,-0.02135,0.214658,-0.011362,0.0
50.7,-0.178624,8.541539,4.683113,0.00788,0.200822,-0.093371,0.0
50.8,-0.58361,8.323912,4.576154,-0.02022,0.100182,-0.206167,0.0
50.9,-0.614506,8.368897,4.580461,0.06521,0.085788,-0.24362,0.0
51.0,-1.132523,8.225088,6.248856,-0.087873,-0.017043,-0.244621,0.0
51.1,-0.949113,8.775199,4.262335,-0.088239,0.079443,-0.139308,0.0
51.2,-0.20351,8.329057,3.759124,-0.144867,-0.054764,-0.326446,0.0
51.3,-0.34684,8.372726,5.672425,-0.002016,-0.349567,-0.655672,0.0
51.4,-1.405066,8.59801,4.497669,0.146424,-0.512027,-0.70112,0.0
51.5,-1.571726,8.491051,4.506882,0.150853,-0.460806,-0.499504,0.0
51.6,-0.964667,8.5212,5.710232,0.071899,-0.344497,-0.309342,0.0
51.7,-1.169014,8.039525,4.318686,0.128159,-0.384417,-0.379561,0.0
51.8,-1.717568,8.334201,5.588078,0.193552,-0.599442,-0.52571,0.0
51.9,-1.898406,8.747262,4.943123,0.199638,-0.571655,-0.371215,0.0
52.0,-2.28048,8.224849,4.592664,0.232526,-0.436463,-0.13271,0.0
52.1,-1.643749,8.591549,4.710152,0.116461,-0.376995,0.005956,0.0
52.2,-1.838286,8.510432,4.466443,0.066432,-0.276477,0.098044,0.0
52.3,-1.66696,8.083433,4.479843,0.046792,-0.109925,0.245201,0.0
52.4,-1.746521,8.259545,5.191229,0.083383,-0.00504,0.263038,0.0
52.5,-1.223091,8.434221,4.688616,0.056138,-0.09838,0.121684,0.0
52.6,-1.407339,8.408977,4.27071,0.029749,-0.155801,0.055253,0.0
52.7,-1.218665,8.777112,5.163831,0.003391,-0.144836,0.096883,0.0
52.8,-1.69041,8.391031,4.084548,0.023152,-0.053359,0.181885,0.0
52.9,-1.428635,8.345567,4.945845,-0.021289,0.002871,0.259648,0.0
53.0,-1.218904,8.537471,4.257669,-0.017379,0.039798,0.27269,0.0
53.1,-0.401845,7.987691,5.647809,0.060285,0.102434,0.286839,0.0
53.2,-1.144248,8.382058,4.634299,-0.011912,0.194591,0.331241,0.0
53.3,-0.86333,8.470712,4.818547,-0.019395,0.223424,0.309831,0.0
53.4,-0.390987,8.239206,4.947759,-0.003513,0.164445,0.182526,0.0
53.5,-0.687697,8.526823,4.883392,0.039798,0.152594,0.132374,0.0
53.6,-0.728255,8.632946,5.106164,0.047342,0.18158,0.171653,0.0
53.7,-0.518166,8.249256,4.197968,-0.071563,0.174066,0.219545,0.0
53.8,-0.66006,8.484949,4.513222,-0.01521,0.319574,0.22547,0.0
53.9,-0.646182,8.581858,6.304131,-0.024068,0.349079,0.189582,0.0
54.0,-0.816311,8.416275,4.333402,0.068539,0.319177,0.0967,0.0
54.1,-0.383749,7.919495,4.476223,-0.009812,0.133588,-0.039973,0.0
54.2,-0.197647,8.756654,5.025167,-0.067867,0.059223,-0.080878,0.0
54.3,-0.717129,8.42465,5.084868,-0.027122,0.175257,-0.005986,0.0
54.4,-0.697268,8.33791,5.318407,-0.040378,0.103328,-0.071776,0.0
54.5,-0.515414,8.003034,5.5809,0.023488,-0.003604,-0.16026,0.0
54.6,-0.589113,8.676973,3.791906,0.05174,-0.029749,-0.11359,0.0
54.7,-1.134557,8.414002,5.327739,0.047984,0.121929,0.040226,0.0
54.8,-0.908914,8.366145,4.769853,-0.043432,0.11976,0.06973,0.0
54.9,-0.431785,8.622776,4.478646,-0.009529,0.087171,-0.043738,0.0
55.0,-0.564467,8.49811,4.797011,-0.047678,-0.02532,-0.146577,0.0
55.1,-0.532044,8.470951,4.595177,0.097616,-0.050977,-0.206931,0.0
55.2,-1.164108,8.614879,5.574798,0.071777,-0.040531,-0.138788,0.0
55.3,-1.31336,8.338688,4.333851,0.117477,-0.050053,-0.100869,0.0
55.4,-1.319642,8.292925,4.072465,0.024862,-0.091538,-0.050793,0.0
55.5,-1.382573,8.889456,4.304568,0.03039,-0.078465,0.010293,0.0
55.6,-1.000798,7.970133,5.072306,-0.018234,0.001191,0.104519,0.0
55.7,-1.146282,8.647063,4.520042,0.098013,0.063988,0.136223,0.0
55.8,-0.900778,8.699226,4.492883,-0.045601,0.007514,0.111361,0.0
55.9,-0.892882,8.273663,5.557809,0.059498,-0.026572,0.06521,0.0
56.0,-0.620339,8.685707,5.610092,0.058551,0.035919,0.11637,0.0
56.1,-1.070549,8.213124,5.020501,0.071471,0.201494,0.231793,0.0
56.2,-0.869193,8.517611,4.876692,0.003726,0.258121,0.263558,0.0
56.3,-0.618186,8.528499,4.88722,0.112277,0.232862,0.124739,0.0
56.4,-0.5068,8.363155,4.139942,0.012126,0.124464,0.004062,0.0
56.5,-0.57353,8.031061,4.689184,-0.051008,0.035736,-0.073457,0.0
56.6,-1.014916,8.768738,5.235736,-0.02532,0.114568,0.0073,0.0
56.7,-0.705165,8.13452,4.978387,-0.043616,0.245506,0.124006,0.0
56.8,-0.868954,8.506843,4.120799,-0.058185,0.191628,0.025962,0.0
56.9,-0.46337,8.058548,3.858786,0.117591,0.033995,-0.165239,0.0
57.0,-0.552503,8.746963,6.648578,-0.407233,-0.158764,-0.304821,0.0
57.1,-1.137428,8.226525,4.098666,-0.035064,-0.191201,-0.230479,0.0
57.2,-0.967299,8.722437,5.399045,-0.020281,-0.063591,-0.038057,0.0
57.3,-0.949592,8.274261,4.310311,0.057482,-0.011942,-0.023488,0.0
57.4,-0.950071,7.920363,5.301538,-0.011698,-0.059254,-0.035216,0.0
57.5,-1.177418,8.71795,3.813262,-0.003971,-0.073991,-0.030085,0.0
57.6,-0.781616,7.789355,5.97416,0.018418,-0.060537,-0.026145,0.0
57.7,-1.152742,9.209974,3.886901,0.042822,-0.053512,0.016829,0.0
57.8,-0.931646,8.357052,5.263851,-0.076175,-0.042516,0.076358,0.0
57.9,-0.794896,8.172327,4.701179,-0.009224,0.029688,0.076663,0.0
58.0,-1.33364,8.737272,5.008536,-0.054489,0.076938,0.133199,0.0
58.1,-1.201795,8.438887,4.922994,0.047922,0.120951,0.132069,0.0
58.2,-1.059901,8.265168,4.960919,0.074251,0.051129,0.045051,0.0
58.3,-0.672981,8.184411,3.499144,0.0905,0.051374,0.059101,0.0
58.4,-0.720479,8.895797,5.605067,-0.013592,0.086468,0.062553,0.0
58.5,-1.019193,8.456684,4.98769,-0.024511,0.072655,0.01176,0.0
58.6,-0.782333,8.506724,4.962355,-0.015119,-0.010873,-0.051221,0.0
58.7,-0.492802,8.349156,5.227959,0.015424,-0.057482,-0.082833,0.0
58.8,-0.577388,8.342457,4.962714,-0.058857,-0.029322,-0.05119,0.0
58.9,-0.726939,8.317571,4.651408,-0.00391,-0.0208,-0.040836,0.0
59.0,-0.889652,8.510074,4.87071,-0.013867,-0.026451,-0.038393,0.0
59.1,-0.798724,8.486863,5.129494,-0.006353,0.005284,-0.009438,0.0
59.2,-0.822413,8.442237,4.474459,-0.027581,0.004276,-0.011393,0.0
59.3,-0.831506,8.492487,4.66421,0.030879,0.029627,-0.031734,0.0
59.4,-1.105843,8.168857,4.556293,-0.04328,0.010385,-0.030726,0.0
59.5,-1.229432,8.338269,5.509474,-0.039462,0.019212,-0.00565,0.0
59.6,-1.04363,8.292925,4.346084,0.001038,-0.027611,-0.028894,0.0
59.7,-0.880678,8.301898,4.452206,0.04102,-0.067378,-0.048381,0.0
59.8,-1.039203,8.564152,5.561398,-0.053023,-0.059193,-0.012645,0.0
59.9,-1.169193,8.696864,5.116602,0.038255,-0.026344,0.023633,0.0
60.0,-1.250848,8.346285,4.624728,0.008338,0.009743,0.081642,0.0
60.1,-0.691047,8.178548,4.88734,0.023885,0.018631,0.080145,0.0
60.2,-0.937747,8.410174,4.872026,0.084391,-0.008583,0.022938,0.0
60.3,-0.886421,8.435537,5.034499,-0.011942,-0.02251,0.056047,0.0
60.4,-1.045903,8.239685,5.324629,-0.024465,0.0613,0.153419,0.0
60.5,-0.908914,8.450134,4.540501,0.000947,0.23558,0.263191,0.0
60.6,-0.515294,8.660104,4.499942,-0.015119,0.203387,0.128465,0.0
60.7,-0.565903,8.235737,4.979225,-0.059407,0.110719,-0.004673,0.0
60.8,-0.911187,8.492726,4.806583,-0.041142,0.10797,-0.025809,0.0
60.9,-0.562553,8.206185,4.956253,0.004765,0.120676,-0.048014,0.0
61.0,-0.8534,8.553982,5.256074,-0.014905,0.042974,-0.146607,0.0
61.1,-0.958774,8.283204,4.591827,0.098349,-0.027756,-0.202464,0.0
61.2,-0.720479,8.458388,5.171249,0.074953,-0.068722,-0.203388,0.0
61.3,-1.11003,8.473822,4.168536,0.09444,-0.132161,-0.207419,0.0
61.4,-1.110389,8.626006,5.268278,-0.031704,-0.196821,-0.160993,0.0
61.5,-0.909632,8.189077,4.746881,-0.018479,-0.143034,-0.06017,0.0
61.6,-1.092682,8.551589,4.57412,0.037446,-0.112033,-0.032468,0.0
61.7,-1.055354,7.813882,5.038567,0.008186,-0.138422,-0.031246,0.0
61.8,-1.402433,8.658309,5.230351,-0.017624,-0.112369,0.046273,0.0
61.9,-1.317967,8.733683,4.787081,-0.017746,-0.009499,0.186161,0.0
62.0,-0.465524,8.527063,4.649015,0.015058,0.120341,0.231121,0.0
62.1,-0.766899,8.399525,5.400481,-0.030055,0.141263,0.159375,0.0
62.2,-1.384367,8.051728,4.045306,-0.02926,0.144439,0.125838,0.0
62.3,-0.866202,8.636146,5.22413,-0.026764,0.14153,0.106634,0.0
62.4,-0.699901,8.274739,4.839604,-0.049969,0.102076,0.021014,0.0
62.5,-0.772762,8.245547,5.132844,0.008216,0.050793,-0.053084,0.0
62.6,-1.100339,8.504929,4.461418,0.006933,0.059743,-0.031337,0.0
62.7,-0.73675,8.083194,5.268756,0.013317,0.098197,-0.009468,0.0
62.8,-0.306042,8.572646,5.226044,0.006872,0.001161,-0.144378,0.0
62.9,-0.703251,7.622097,4.284947,0.029627,-0.231854,-0.34972,0.0
63.0,-1.115414,8.965069,5.784888,-0.017349,-0.315939,-0.287076,0.0
63.1,-1.27023,8.230473,4.704409,-0.043677,-0.115912,0.004337,0.0
63.2,-1.210529,8.503853,5.393661,-0.008308,0.067379,0.153449,0.0
63.3,-0.825285,8.305846,5.082116,0.046854,0.057269,0.065332,0.0
63.4,-0.595933,8.298787,5.10066,0.013928,0.009988,-0.047373,0.0
63.5,-1.427319,8.349605,5.009972,0.032299,-0.008514,-0.072922,0.0
63.6,-0.905683,8.708439,5.366742,0.041967,-0.027305,-0.08155,0.0
63.7,-0.821336,7.975517,2.856312,0.073365,-0.083597,-0.158977,0.0
63.8,-0.95689,8.331809,5.938268,-0.015944,-0.144469,-0.202532,0.0
63.9,-1.168535,8.285268,5.631628,-0.016127,-0.16472,-0.187108,0.0
64.0,-1.229552,8.149595,5.084748,-0.068234,-0.215024,-0.185092,0.0
64.1,-1.425165,7.781339,4.743412,0.059651,-0.324736,-0.239612,0.0
64.2,-1.320958,8.989237,5.563791,0.107909,-0.238726,-0.055925,0.0
64.3,-1.554737,8.428837,4.463452,0.037568,-0.098563,0.11472,0.0
64.4,-1.440958,8.455159,4.551388,0.042241,-0.011851,0.170798,0.0
64.5,-1.054996,8.245547,4.507121,0.066309,-0.035125,0.114384,0.0
64.6,-1.354038,8.897262,5.347959,-0.020617,-0.037797,0.130725,0.0
64.7,-0.944168,8.133802,4.826722,0.005752,0.072642,0.196265,0.0
64.8,-0.742822,8.11451,4.991428,-0.058948,0.103122,0.192346,0.0
64.9,-0.804467,8.258588,5.212525,-0.049541,0.069944,0.109681,0.0
65.0,-1.082154,8.432427,4.573163,-0.040836,-0.014783,0.016707,0.0
65.1,-0.991944,8.580542,4.845466,-0.057513,0.00336,0.074984,0.0
65.2,-0.636371,8.305129,4.258267,6.1e-05,0.16979,0.196301,0.0
65.3,-0.141535,8.668718,4.949913,0.011332,0.259709,0.153907,0.0
65.4,-0.450688,8.27474,5.135715,0.017104,0.079657,-0.131641,0.0
65.5,-0.875653,8.580781,4.627001,0.021411,-0.101526,-0.275439,0.0
65.6,-1.387358,8.461978,5.522874,0.007483,-0.07199,-0.144347,0.0
65.7,-1.05332,8.508757,4.476014,0.008185,-0.060689,-0.090622,0.0
65.8,-0.752303,8.415916,5.084628,0.016615,-0.146363,-0.156504,0.0
65.9,-1.025474,8.165208,4.600202,-0.036308,-0.13187,-0.106252,0.0
66.0,-0.98694,8.4679,4.864409,-0.017002,-0.029296,0.000585,0.0
66.1,-0.855434,8.266754,5.031358,0.009583,-0.081856,-0.076358,0.0
66.2,-1.05667,8.256913,4.65069,-0.014966,-0.110414,-0.093646,0.0
66.3,-1.504368,8.226764,4.856353,-0.009224,-0.110353,-0.041875,0.0
66.4,-1.379462,8.257152,5.156293,0.053939,-0.062156,0.061239,0.0
66.5,-0.714018,8.099465,5.178547,0.046517,0.07306,0.182435,0.0
66.6,-0.464566,8.372845,5.435775,-0.045082,0.008613,0.034422,0.0
66.7,-0.897667,8.295318,4.869274,0.023763,-0.171897,-0.134696,0.0
66.8,-1.569333,8.633544,5.186204,-0.016188,-0.169942,-0.014233,0.0
66.9,-1.192463,7.838408,4.823212,0.102228,0.007361,0.199356,0.0
67.0,-1.833141,9.103374,4.431268,0.025228,0.339213,0.534385,0.0
67.1,-1.090978,8.226973,5.201398,-0.054252,0.552031,0.659696,0.0
67.2,-0.285584,8.249735,5.186323,-0.038668,0.502894,0.448375,0.0
67.3,-0.497109,8.179386,5.10736,-0.029749,0.314382,0.149906,0.0
67.4,-0.799203,8.349755,4.868198,-0.007666,0.215788,0.039431,0.0
67.5,-0.237009,8.267322,5.400361,-0.045143,0.097708,-0.056077,0.0
67.6,-0.118684,8.269595,5.263971,0.059987,-0.031673,-0.208671,0.0
67.7,-0.927697,8.420821,4.548875,0.03094,-0.013256,-0.109589,0.0
67.8,-1.161596,8.497033,5.139544,-0.012645,0.120402,0.095478,0.0
67.9,-0.817029,8.642277,4.49396,0.02364,0.204945,0.157573,0.0
68.0,-0.718086,8.332646,4.731568,-0.007544,0.191689,0.112277,0.0
68.1,-0.399721,8.530652,5.116453,-0.100732,0.122845,0.037629,0.0
68.2,-0.508475,8.297351,4.968816,0.021014,0.167163,0.006506,0.0
68.3,-0.255314,8.360762,5.112026,0.04893,0.040562,-0.16643,0.0
68.4,-0.642473,8.430662,4.494469,0.028482,-0.139964,-0.312763,0.0
68.5,-0.99362,8.716096,4.589793,0.033628,-0.150395,-0.246728,0.0
68.6,-0.839761,8.520961,4.573402,-0.056383,-0.098349,-0.123303,0.0
68.7,-1.19677,8.529934,4.817709,-0.094104,-0.076205,-0.063286,0.0
68.8,-1.115055,8.488418,4.429354,0.00675,-0.000428,-0.009255,0.0
68.9,-0.91693,8.442118,4.856114,0.004062,0.022174,0.000305,0.0
69.0,-0.884746,8.386484,4.578068,-0.003146,-0.009407,-0.055864,0.0
69.1,-1.323829,8.666325,5.157729,0.023305,-0.099143,-0.130175,0.0
69.2,-1.492045,8.416036,4.61085,0.025229,-0.177426,-0.120585,0.0
69.3,-1.505085,8.492008,4.403512,-0.004215,-0.109895,0.038057,0.0
69.4,-1.177388,8.406943,4.565865,0.014783,0.022846,0.158458,0.0
69.5,-1.141975,8.359924,4.839843,0.007513,0.066493,0.194347,0.0
69.6,-1.056581,8.581559,5.031957,-0.003933,0.100373,0.197576,0.0
69.7,-0.841795,8.432427,4.497789,0.032864,0.073792,0.158519,0.0
69.8,-0.87362,8.086784,4.92754,0.033567,0.01353,0.078374,0.0
69.9,-1.231107,8.586285,4.960321,-0.053451,0.061667,0.178922,0.0
70.0,-1.191147,8.523354,4.563113,0.009071,0.229899,0.330814,2.0
70.1,-0.588993,8.598728,5.465925,-0.068844,0.191354,0.265482,2.0
70.2,-1.166501,8.069794,4.648656,0.011179,0.187749,0.25696,2.0
70.3,-1.145325,8.813125,4.72068,-0.053665,0.316642,0.426353,2.0
70.4,-0.584207,8.636415,5.028756,0.055161,0.502864,0.509889,2.0
70.5,-0.289053,8.508877,4.172724,0.028955,0.458301,0.357722,2.0
70.6,-0.480239,8.561161,4.834698,0.022572,0.376782,0.217468,2.0
70.7,-0.87015,8.656036,4.940939,0.023396,0.366824,0.216948,2.0
70.8,-0.416052,8.465508,4.823332,0.032872,0.396833,0.257746,2.0
70.9,-0.477488,8.514261,4.837689,0.015974,0.344925,0.17596,2.0
71.0,-0.309153,8.205826,4.663372,0.045296,0.197431,0.062889,2.0
71.1,-0.294557,8.708319,5.149115,-0.03039,0.229258,0.120799,2.0
71.2,-0.681596,8.87474,6.053841,0.047892,0.304058,0.203906,2.0
71.3,-0.85017,8.409695,4.078207,0.130847,0.326507,0.235763,2.0
71.4,-0.781615,8.272227,4.028078,0.082375,0.296391,0.259312,2.0
71.5,-0.249332,8.887422,5.130571,-0.032376,0.371833,0.366977,2.0
71.6,-0.548196,8.217791,5.364469,-0.01347,0.653778,0.546846,2.0
71.7,-0.054437,8.172447,5.75761,0.009743,0.700173,0.486645,2.0
71.8,0.342772,8.442476,4.559404,0.061819,0.56392,0.21875,2.0
71.9,0.162562,8.26451,5.50095,0.145615,0.43799,0.0499,2.0
72.0,0.328176,8.612128,4.649015,0.114995,0.280142,-0.122631,2.0
72.1,0.029073,8.224371,3.984887,0.041661,0.116645,-0.230174,2.0
72.2,-0.554537,8.866126,5.184888,0.059712,0.116461,-0.17089,2.0
72.3,-0.858305,8.516535,4.460461,0.001955,0.18326,-0.001741,2.0
72.4,-0.813799,8.50134,4.646024,0.011759,0.263405,0.113712,2.0
72.5,-0.509911,8.487342,5.1606,-0.051557,0.220675,0.088392,2.0
72.6,-0.906282,8.690492,4.507958,-0.041294,0.089156,0.00391,2.0
72.7,-0.691885,8.672786,4.215316,-0.032804,0.133963,0.112246,2.0
72.8,-0.977348,8.305846,4.448616,-0.034056,0.206289,0.203174,2.0
72.9,-1.121277,8.697671,4.736712,-0.034697,0.258854,0.286496,2.0
73.0,-1.11685,8.607581,4.718497,-0.043142,0.359112,0.405882,2.0
73.1,-0.321117,8.395457,4.964389,-0.008766,0.449108,0.411417,2.0
73.2,-0.289651,8.450253,5.08415,-0.062216,0.432859,0.332555,2.0
73.3,-0.230668,8.502297,4.712066,0.0562,0.414228,0.221866,2.0
73.4,-0.050249,8.442357,5.059743,0.045021,0.339335,0.115209,2.0
73.5,-0.371007,8.470473,4.654758,0.014355,0.334907,0.080512,2.0
73.6,-0.297547,8.421778,5.181777,-0.008857,0.221988,-0.033781,2.0
73.7,-0.376271,8.431709,4.612883,0.055894,0.125624,-0.091019,2.0
73.8,-0.363829,8.71813,5.068238,0.014355,0.186527,0.001283,2.0
73.9,-0.325783,8.535677,4.675456,-0.010048,0.245873,0.022541,2.0
74.0,-0.408814,8.426564,4.829913,-0.042027,0.165667,-0.074739,2.0
74.1,-0.838924,8.399406,4.695077,0.054581,0.072418,-0.145508,2.0
74.2,-1.352423,8.497631,4.637051,-0.015271,0.012034,-0.085032,2.0
74.3,-0.861775,8.528857,4.645067,-0.024862,0.096364,0.05681,2.0
74.4,-0.373878,8.438737,5.290232,-0.029474,0.135497,0.070402,2.0
74.5,-0.672264,8.278807,4.193422,-0.023671,0.114873,0.013867,2.0
74.6,-0.708395,8.374999,5.028397,-0.044624,0.104488,-0.002138,2.0
74.7,-0.645224,8.464371,4.696513,0.01689,0.043127,-0.079718,2.0
74.8,-0.381775,8.381938,4.523033,-0.067592,-0.11695,-0.192025,2.0
74.9,-0.930449,8.562237,5.520481,-0.036255,-0.065546,-0.103419,2.0
75.0,-0.64008,8.319126,4.585964,-0.005528,0.190651,0.108917,0.0
75.1,-0.575235,8.304171,5.119803,-0.033842,0.108062,-0.063438,0.0
75.2,-0.785923,8.513902,5.200441,-0.059101,-0.14731,-0.297308,0.0
75.3,-0.961197,8.65125,4.856353,0.010415,-0.184787,-0.265512,0.0
75.4,-0.83354,8.24136,4.195815,0.008247,-0.134848,-0.168324,0.0
75.5,-1.526501,8.774002,4.867241,0.031735,-0.171134,-0.173516,0.0
75.6,-1.395853,8.463294,5.199245,0.034758,-0.196851,-0.109009,0.0
75.7,-1.515614,8.42465,4.952784,0.026298,-0.14505,0.011943,0.0
75.8,-1.526621,8.207531,4.104439,0.122326,-0.043372,0.119615,0.0
75.9,-1.311506,8.657352,4.650212,0.080481,0.113254,0.275836,0.0
76.0,-1.096272,8.309795,5.24746,0.00675,0.29236,0.368138,0.0
76.1,-0.828874,8.517611,4.642435,-0.039065,0.215758,0.159436,0.0
76.2,-0.6268,8.402875,4.854798,-0.02416,-0.02361,-0.120585,0.0
76.3,-0.419582,8.335278,5.097669,-0.042211,-0.146058,-0.201494,0.0
76.4,-0.959163,8.342696,5.039524,-0.051496,-0.113315,-0.130358,0.0
76.5,-1.056072,8.605907,4.981139,0.028558,-0.02532,-0.035247,0.0
76.6,-0.934996,8.360164,4.623412,-0.00281,-0.039095,-0.04105,0.0
76.7,-0.929492,8.450373,4.751787,0.020006,-0.067042,-0.073853,0.0
76.8,-1.039801,8.627561,4.804309,0.004673,-0.040073,-0.025107,0.0
76.9,-0.832822,8.540463,4.307679,-0.022296,-0.020403,-0.010935,0.0
77.0,-1.010011,8.542496,5.138108,0.028619,-0.019395,-0.052931,0.0
77.1,-1.214358,8.342427,4.545017,0.041768,-0.023747,-0.036499,0.0
77.2,-1.309233,8.580184,5.121358,0.036194,-0.019426,-0.009865,0.0
77.3,-1.199044,8.534122,4.25073,0.029261,-0.001527,0.015913,0.0
77.4,-0.963829,8.439246,4.363551,0.053176,-0.012401,0.002138,0.0
77.5,-0.841556,8.446425,5.239444,0.064477,-0.025656,-0.037018,0.0
77.6,-1.269512,8.586166,4.756931,0.017623,0.005131,0.006842,0.0
77.7,-1.172603,8.38481,4.743891,-0.039217,-0.028925,-0.001771,0.0
77.8,-0.769173,8.330133,4.572685,-0.009652,-0.09224,-0.063866,0.0
77.9,-0.876132,8.513543,5.835017,0.01124,-0.07871,-0.056597,0.0
78.0,-1.248575,8.394739,4.459743,-0.006994,-0.021258,0.020189,0.0
78.1,-1.115295,8.514022,5.115735,0.048228,0.062827,0.077794,0.0
78.2,-0.482034,8.267202,4.312943,0.066523,-0.040317,-0.07028,0.0
78.3,-0.756371,8.693364,4.569573,0.064171,-0.250363,-0.280356,0.0
78.4,-1.291646,8.802716,4.478646,0.045021,-0.216399,-0.152625,0.0
78.5,-0.99676,8.455787,3.895665,0.10358,-0.117515,-0.032758,0.0
78.6,-1.203351,8.671589,4.979823,0.05116,-0.100945,-0.019578,0.0
78.7,-1.878844,8.538907,4.468357,0.021472,-0.123914,0.052565,0.0
78.8,-1.600559,8.768499,4.76758,0.004551,0.071135,0.339152,0.0
78.9,-1.48367,8.38804,4.186602,-0.006811,0.460011,0.611231,0.0
79.0,-0.868834,8.459585,4.531647,0.022816,0.383776,0.409188,0.0
79.1,-0.244068,8.557332,4.831348,0.05287,0.181549,0.094165,0.0
79.2,-0.884866,8.595857,4.301458,-0.024618,0.069852,0.005223,0.0
79.3,-1.091007,8.583174,5.277131,-0.064751,0.135154,0.121012,0.0
79.4,-0.572243,8.650293,4.156931,-0.014997,0.233717,0.198256,0.0
79.5,-0.525942,8.29472,4.541578,-0.029077,0.183504,0.097066,0.0
79.6,-0.495314,8.292207,4.612405,-0.027886,0.176296,0.071838,0.0
79.7,-0.71677,8.371529,4.677011,-0.026389,0.221347,0.092118,0.0
79.8,-0.45344,8.757731,5.367849,0.072655,0.229189,0.055474,0.0
79.9,-0.463849,8.200682,5.251887,-0.035339,0.110047,-0.051771,0.0
80.0,-0.358206,8.616674,4.529494,0.010568,-0.03992,-0.204517,0.0
80.1,-0.656949,8.516534,4.064688,0.020128,-0.159925,-0.260564,0.0
80.2,-1.11003,8.896873,4.411767,-0.013256,0.016218,-0.011545,0.0
80.3,-1.129173,8.64156,5.138945,-0.010201,0.286129,0.222202,0.0
80.4,-0.915972,8.3281,4.176074,-0.053145,0.230052,0.134849,0.0
80.5,-0.593779,8.279525,4.849294,-0.020159,0.053573,-0.084605,0.0
80.6,-0.979263,8.653882,4.445266,0.003177,-0.033536,-0.147341,0.0
80.7,-1.189472,8.690732,4.631667,-0.011179,0.145875,0.057696,0.0
80.8,-0.547837,8.246983,4.337829,-0.049572,0.11243,-0.019364,0.0
80.9,-0.402832,8.132846,5.036174,-0.039248,-0.163712,-0.317619,0.0
81.0,-1.168894,8.83801,4.955655,0.019975,-0.232648,-0.327332,0.0
81.1,-1.645783,8.330732,4.087061,0.002199,-0.111636,-0.114995,0.0
81.2,-1.065704,8.392228,4.788337,-0.029627,-0.14027,-0.102472,0.0
81.3,-0.683988,8.385049,5.090371,-0.016035,-0.228402,-0.185367,0.0
81.4,-1.359243,8.571809,4.554618,0.041875,-0.230754,-0.180388,0.0
81.5,-1.479721,8.816235,5.628398,0.073426,-0.070952,0.026756,0.0
81.6,-1.237209,8.83119,6.137351,0.212886,0.16927,0.194072,0.0
81.7,-0.647498,7.25109,3.035056,0.182557,0.033475,-0.001344,0.0
81.8,-0.826242,8.425607,4.127499,0.023427,-0.211023,-0.237443,0.0
81.9,-1.778944,9.125388,3.453322,-0.034117,-0.178892,-0.12764,0.0
82.0,-1.076531,8.74792,5.100182,-0.21982,0.004154,0.091263,0.0
82.1,-1.262453,7.187202,4.975037,-0.310197,0.055833,0.088759,0.0
82.2,-1.002832,7.554739,4.365944,-0.255799,-0.104366,-0.09502,0.0
82.3,-0.687817,8.947841,6.391947,-0.114843,-0.223057,-0.253051,0.0
82.4,-1.070788,8.79793,5.698507,0.074342,-0.218812,-0.273087,0.0
82.5,-1.365255,8.66142,3.633202,0.134352,-0.123166,-0.171538,0.0
82.6,-1.117927,7.885427,6.2144,0.178434,-0.122906,-0.161635,0.0
82.7,-1.155255,8.439246,2.739543,0.169912,-0.230296,-0.268719,0.0
82.8,-0.735434,9.03458,5.732366,0.037232,-0.57684,-0.534384,0.0
82.9,-1.890569,8.198648,5.248657,0.01854,-0.47006,-0.290253,0.0
83.0,-2.07697,8.523474,4.751547,0.1102,-0.287992,-0.027611,0.0
83.1,-1.712304,7.821539,5.553502,0.061606,-0.071624,0.21252,0.0
83.2,-1.847379,8.388399,4.593023,-0.00504,0.045051,0.3317,0.0
83.3,-0.817149,8.006384,5.74756,0.023366,-0.013256,0.191048,0.0
83.4,-0.431187,8.117292,4.918327,0.094959,-0.18726,-0.054092,0.0
83.5,-2.076133,8.614401,4.751069,0.061911,-0.151983,0.030177,0.0
83.6,-2.369612,8.293284,4.863412,-0.003024,0.282372,0.569326,0.0
83.7,-0.982493,8.625766,4.553182,-0.014356,0.587255,0.731877,0.0
83.8,0.038285,7.613005,5.707959,-0.005681,0.457691,0.395077,0.0
83.9,-0.167198,8.387741,4.661667,-0.059674,0.179327,0.01928,0.0
84.0,-0.315015,8.464012,4.98413,0.019456,0.027214,-0.16191,0.0
84.1,-0.419821,8.599924,4.862096,0.088667,0.014111,-0.178006,0.0
84.2,-0.511705,7.983054,4.564907,-0.09166,-0.051404,-0.189429,0.0
84.3,-1.048296,8.673264,5.078407,0.035155,-0.167225,-0.279257,0.0
84.4,-1.264846,8.486983,5.269474,-0.079199,-0.190804,-0.155862,0.0
84.5,-1.029631,8.584969,4.787799,0.051649,-0.065179,-0.011759,0.0
84.6,-1.359123,8.222576,4.412843,-0.005803,-0.063011,0.022694,0.0
84.7,-1.569333,8.24136,4.956971,-0.065851,0.000733,0.161452,0.0
84.8,-1.587279,8.615477,4.4205,-0.015944,0.299171,0.451643,0.0
84.9,-0.938106,8.392706,5.261099,-0.065301,0.329256,0.441625,0.0
85.0,-0.821935,8.282995,4.931009,-0.119882,0.246148,0.327118,0.0
85.1,-0.557528,7.991429,4.300142,0.0354,0.317711,0.31371,0.0
85.2,-0.344118,8.719146,5.301448,-0.110643,0.264314,0.226669,0.0
85.3,-1.034298,8.300463,4.939504,0.009041,0.295567,0.225745,0.0
85.4,-0.191426,8.40778,5.334559,-0.009896,0.373697,0.286068,0.0
85.5,-0.402592,8.355856,5.030311,0.00281,0.30528,0.16026,0.0
85.6,-0.406421,8.07123,4.719843,0.074434,0.073487,-0.04832,0.0
85.7,-1.306362,8.979306,4.721159,-0.018082,0.180388,0.151678,0.0
85.8,-0.585643,8.593224,4.763751,-0.003054,0.523786,0.483286,0.0
85.9,0.292403,8.395099,5.391388,0.010873,0.533774,0.338389,0.0
86.0,0.137588,8.519884,5.216473,0.19734,0.434447,0.058948,0.0
86.1,-0.340618,8.166943,3.988477,0.06802,0.324797,-0.073121,0.0
86.2,-0.303649,8.140383,3.659463,0.049908,0.091874,-0.297094,0.0
86.3,-0.217149,8.731858,6.248557,0.024015,-0.252249,-0.57952,0.0
86.4,-0.912742,8.550632,4.141617,-0.0405,-0.431637,-0.609368,0.0
86.5,-1.744248,8.462337,5.764429,-0.00055,-0.084788,-0.138605,0.0
86.6,-0.974357,8.300343,4.939504,-0.014111,0.25018,0.20861,0.0
86.7,-0.178744,7.460343,5.209534,-0.064324,0.147951,-0.012462,0.0
86.8,-1.204068,9.048339,5.036652,-0.10293,-0.050427,-0.227944,0.0
86.9,-0.653839,7.848698,5.425127,0.001863,-0.14111,-0.307845,0.0
87.0,-0.648814,8.131529,5.165027,0.015547,-0.338908,-0.499749,0.0
87.1,-1.064686,7.998249,5.926902,0.04105,-0.553169,-0.645623,0.0
87.2,-1.550908,8.702457,5.422375,0.087812,-0.577237,-0.548282,0.0
87.3,-1.966541,8.545248,4.603073,0.20464,-0.322995,-0.231456,0.0
87.4,-1.582972,7.855158,4.978148,0.112552,-0.242238,-0.091202,0.0
87.5,-1.713859,8.150672,5.256792,0.085918,-0.25809,-0.054581,0.0
87.6,-1.534876,8.484471,5.342694,0.120432,-0.225287,-0.041508,0.0
87.7,-1.72702,8.733204,5.076254,0.121226,-0.161024,0.034544,0.0
87.8,-1.512025,8.430393,4.068995,0.081306,0.040287,0.202746,0.0
87.9,-2.061268,8.163414,4.899604,0.008285,0.095638,0.220904,0.0
88.0,-2.050649,8.520483,4.165665,0.119852,0.080237,0.184573,0.0
88.1,-0.911187,8.76479,4.888776,0.070708,0.017776,0.126357,0.0
88.2,-1.11027,8.71478,4.090291,0.02138,-0.140621,-0.051191,0.0
88.3,-1.228475,8.814201,4.001039,0.031337,-0.067836,0.016677,0.0
88.4,-0.827917,8.305487,4.509154,-0.060323,0.008124,0.102595,0.0
88.5,-0.438963,8.670034,4.486064,-0.006903,-0.043616,-0.040195,0.0
88.6,-0.951625,8.414361,5.57755,-0.088728,-0.152258,-0.148501,0.0
88.7,-1.068156,8.373922,3.791667,0.074128,-0.231701,-0.230479,0.0
88.8,-2.002673,8.247581,4.541936,-0.039951,-0.120035,-0.015333,0.0
88.9,-1.185045,8.459944,4.351348,-0.051893,0.038271,0.180022,0.0
89.0,-0.46349,8.573723,5.299384,-0.045357,-0.130786,-0.051496,0.0
89.1,-1.000678,8.492726,4.391069,-0.021289,-0.227211,-0.139644,0.0
89.2,-1.644019,8.304889,4.629065,-0.010957,-0.059674,0.069143,0.0
89.3,-1.684547,8.297112,4.482116,-0.029321,0.145202,0.311969,0.0
89.4,-1.102493,8.255478,5.279045,-0.030238,0.190742,0.325835,0.0
89.5,-0.995653,8.456833,5.003153,-0.000733,0.064691,0.159069,0.0
89.6,-1.029991,8.155457,5.063093,-0.049511,-0.036377,0.126143,0.0
89.7,-1.572324,8.615597,4.845825,-0.013531,0.210046,0.399994,0.0
89.8,-1.236371,7.99119,4.884708,0.029902,0.521495,0.68423,0.0
89.9,-0.645225,8.216235,5.181538,-0.029871,0.624793,0.684718,0.0
90.0,-0.106122,8.255836,5.383731,0.03882,0.524183,0.461569,2.0
90.1,0.180778,8.277372,4.927659,0.007911,0.26817,0.158,2.0
90.2,-0.714975,8.303693,5.626124,-0.000183,0.329898,0.219056,2.0
90.3,-0.606132,8.583204,5.030312,0.061239,0.433447,0.317994,2.0
90.4,-0.274696,8.183573,5.26421,-0.007514,0.35925,0.265238,2.0
90.5,-0.424367,8.431709,4.942136,-0.000672,0.405064,0.296056,2.0
90.6,-0.481436,8.391031,5.579225,0.044593,0.505979,0.35757,2.0
90.7,0.125504,7.987361,4.38078,0.045143,0.440464,0.262519,2.0
90.8,-0.140578,8.452646,5.912545,-0.015882,0.335334,0.142729,2.0
90.9,-0.154217,7.993942,4.965107,-0.007544,0.326813,0.136192,2.0
91.0,-0.215593,8.621699,5.850092,0.026725,0.259801,0.073029,2.0
91.1,-0.295873,8.838249,6.612326,0.067317,0.183718,0.05788,2.0
91.2,-0.051805,7.103453,2.208575,0.074984,0.276508,0.172936,2.0
91.3,-0.271227,7.470991,4.036572,-0.184695,0.299813,0.19398,2.0
91.4,-1.050329,8.67135,8.100303,-0.370245,0.274431,0.227608,2.0
91.5,-0.682403,8.93495,3.653541,0.081321,0.400116,0.363961,2.0
91.6,-0.379143,8.869356,5.532445,-0.193522,0.45146,0.431362,2.0
91.7,-0.173958,6.497351,6.539345,-0.089094,0.45934,0.387533,2.0
91.8,-0.032423,7.288059,5.658427,0.203662,0.453537,0.3233,2.0
91.9,0.30688,9.982737,4.106203,0.344161,0.343245,0.133535,2.0
92.0,-0.366581,7.769375,5.659384,0.020647,0.329012,0.149968,2.0
92.1,-1.299303,8.303334,5.448218,0.036835,0.393947,0.25528,2.0
92.2,0.547597,8.275457,4.650451,0.105771,0.418351,0.253936,2.0
92.3,0.160439,8.226404,5.837769,0.115973,0.343062,0.076938,2.0
92.4,0.087817,8.271748,5.304648,0.083719,0.115515,-0.128465,2.0
92.5,-0.319561,8.385168,5.38086,0.039157,0.066615,-0.096456,2.0
92.6,-0.447697,8.277013,5.481239,0.074587,0.158886,0.028008,2.0
92.7,-0.555853,8.388758,4.325386,0.040073,0.207847,0.129167,2.0
92.8,-0.646361,8.559874,5.352594,0.073648,0.26962,0.180052,2.0
92.9,-0.629312,8.296036,5.418308,0.030849,0.323178,0.240162,2.0
93.0,-0.47677,8.19482,5.663691,0.05003,0.372841,0.252593,2.0
93.1,-0.224925,8.37787,4.733362,0.071288,0.30415,0.131886,2.0
93.2,-0.248973,8.363154,4.917251,0.044746,0.245537,0.057085,2.0
93.3,-0.508834,8.226165,5.469155,0.037752,0.235091,0.04554,2.0
93.4,-0.42018,8.602676,4.635256,-0.003757,0.240559,0.06075,2.0
93.5,-0.15003,8.395099,5.166942,0.035858,0.180877,-0.048442,2.0
93.6,-0.352223,8.125428,4.706682,-0.063622,0.028497,-0.173089,2.0
93.7,-0.493639,8.493563,5.181059,-0.033048,-0.059956,-0.211848,2.0
93.8,-0.571167,8.3415,4.799165,-0.034636,-0.052321,-0.148013,2.0
93.9,-0.671785,8.33791,4.786842,-0.092546,-0.046456,-0.083719,2.0
94.0,-0.636491,8.408139,5.238248,0.048625,0.060476,-0.001435,2.0
94.1,-0.802673,8.313145,4.689932,0.043249,0.103358,0.014539,2.0
94.2,-0.82687,8.376375,5.723034,-0.066164,0.000267,-0.038675,2.0
94.3,-0.923829,8.410772,4.720341,-0.018428,-0.054901,-0.055843,2.0
94.4,-0.807278,8.390582,4.645815,-0.031574,0.019853,0.043677,2.0
94.5,-0.859023,8.526704,5.561159,0.047526,0.074892,0.068111,2.0
94.6,-1.003071,8.343533,4.388078,0.054031,0.078466,0.062675,2.0
94.7,-1.206342,8.2611,5.628278,0.008552,0.16808,0.159466,2.0
94.8,-0.917767,8.401081,5.150191,0.05791,0.252318,0.21649,2.0
94.9,-0.686381,8.254521,5.21085,-0.068905,0.125716,0.074403,2.0
95.0,-0.826601,8.287661,5.508277,0.009438,0.020342,-0.027672,0.0
95.1,-1.004626,8.464251,4.059543,0.044746,0.068295,0.042425,0.0
95.2,-0.990509,8.244231,5.86421,-0.042577,0.167743,0.131611,0.0
95.3,-1.101775,8.356813,5.027679,0.017013,0.276936,0.225776,0.0
95.4,-0.27661,8.13117,4.618148,-0.059743,0.291413,0.146119,0.0
95.5,-0.000837,8.058428,6.211289,-0.026909,0.087293,-0.169637,0.0
95.6,-0.434178,8.291131,4.920002,0.126082,-0.138636,-0.410379,0.0
95.7,-1.078086,8.552187,5.286343,0.037141,-0.217407,-0.344009,0.0
95.8,-1.217947,8.153693,4.931608,0.009697,-0.115874,-0.17131,0.0
95.9,-1.02676,8.466285,4.767819,0.049144,-0.108642,-0.143614,0.0
96.0,-0.837488,8.435418,5.266842,0.012492,-0.141018,-0.153083,0.0
96.1,-1.125464,8.263254,5.147679,-0.058765,-0.185489,-0.143492,0.0
96.2,-1.208256,8.016075,5.289454,-0.000458,-0.25806,-0.177884,0.0
96.3,-1.859821,8.331449,4.659304,0.094867,-0.201494,-0.034819,0.0
96.4,-1.687777,8.381818,5.154619,0.040439,0.095936,0.321254,0.0
96.5,-0.874696,8.171131,4.179184,0.589576,0.226478,0.258029,0.0
96.6,-0.535992,8.320921,6.107441,-0.125136,0.013317,0.066676,0.0
96.7,-0.98357,7.905766,4.693402,-0.102015,-0.060201,0.042577,0.0
96.8,-1.665644,8.770174,5.374998,0.053542,0.089583,0.184054,0.0
96.9,-1.207777,8.114181,4.743172,-0.073273,0.348346,0.449841,0.0
97.0,0.028236,8.281918,5.391269,0.041539,0.183015,0.150822,0.0
97.1,-0.673221,8.095397,5.382415,-0.015211,0.06295,0.021472,0.0
97.2,-0.975554,8.457671,4.943332,0.001711,0.074923,0.055528,0.0
97.3,-0.853639,8.751749,5.193023,0.036957,0.178983,0.183565,0.0
