Timestamp,AccX,AccY,AccZ,GyroX,GyroY,GyroZ,Label
0.0,1.814358,7.018747,6.528817,-0.005956,0.00672,-0.007483,0
0.008,1.788037,6.981658,6.566504,-0.004429,0.008094,-0.007636,0
0.032,1.808974,7.003194,6.579066,-0.003512,0.008247,-0.007483,0
0.049,1.835893,7.000801,6.56112,-0.003971,0.007789,-0.006872,0
0.072,1.841875,6.990033,6.54437,-0.004887,0.008399,-0.008705,0
0.091,1.852643,6.995417,6.567102,-0.005192,0.008399,-0.009621,0
0.113,1.83709,6.99123,6.559325,-0.006261,0.010079,-0.00901,0
0.131,1.823331,6.988837,6.561718,-0.005192,0.009621,-0.010079,0
0.155,1.773082,7.003792,6.582057,-0.006414,0.010385,-0.010996,0
0.172,1.721038,7.015158,6.576075,-0.006109,0.009468,-0.011301,0
0.194,1.705484,6.988238,6.582057,-0.00565,0.010079,-0.009163,0
0.215,1.735993,7.0343,6.558129,-0.003971,0.009163,-0.008705,0
0.232,1.79043,7.04447,6.52762,-0.00504,0.010843,-0.007789,0
0.254,1.766501,7.048657,6.515656,-0.005192,0.009316,-0.008858,0
0.274,1.709672,7.048059,6.554539,-0.005956,0.010996,-0.009774,0
0.295,1.675574,7.033702,6.571289,-0.00565,0.008399,-0.010232,0
0.317,1.696511,7.019943,6.579066,-0.00565,0.007636,-0.008705,0
0.336,1.75693,7.009774,6.576075,-0.004429,0.007941,-0.007178,0
0.355,1.723431,7.000203,6.602396,-0.005345,0.008399,-0.00733,0
0.376,1.66361,6.959525,6.656833,-0.005192,0.007178,-0.008399,0
0.399,1.615155,6.896115,6.698109,-0.00504,0.004581,-0.008094,0
0.417,1.590629,6.886544,6.731608,-0.003818,0.002596,-0.00565,0
0.436,1.674976,6.896115,6.706484,-0.000305,0.002291,-0.001833,0
0.457,1.744966,6.896713,6.685546,-0.000611,0.000458,0.000458,0
0.478,1.810768,6.903892,6.64427,0.000764,-0.001069,0.000305,0
0.497,1.828117,6.941578,6.623931,0.001222,-0.000916,-0.000458,0
0.519,1.802394,6.961319,6.609574,0.000916,0.000458,-0.000611,0
0.541,1.72702,6.964909,6.623333,0.000764,0.000305,-0.000916,0
0.56,1.585843,6.999604,6.641279,-0.000764,-0.002749,-0.001833,0
0.579,1.52363,6.98764,6.646663,0.000305,-0.001222,-0.000153,0
0.601,1.539183,7.028916,6.614958,0.002902,-0.003054,0.004123,0
0.62,1.648057,7.05105,6.561718,0.003971,-0.004581,0.007178,0
0.64,1.731207,7.061818,6.51446,0.005192,-0.006109,0.008552,0
0.659,1.758126,7.070791,6.507879,0.005192,-0.00565,0.007483,0
0.681,1.734198,7.040881,6.530013,0.003818,-0.00733,0.007483,0
0.7,1.691726,7.043273,6.552146,0.003665,-0.006567,0.007025,0
0.72,1.709672,7.013363,6.575477,0.003971,-0.006109,0.007941,0
0.743,1.792822,7.025926,6.55753,0.00565,-0.005803,0.007941,0
0.761,1.852045,7.01097,6.554539,0.004887,-0.00565,0.008399,0
0.783,1.908874,6.988837,6.547959,0.00504,-0.003818,0.009774,0
0.801,1.923231,6.970293,6.578468,0.00336,-0.000764,0.009621,0
0.823,1.948954,6.966703,6.562914,0.002291,-0.000153,0.00565,0
0.843,1.983052,6.996614,6.527022,-0.000305,0.001985,-0.0,0
0.861,1.986043,7.015756,6.496513,-0.001222,0.004581,-0.0,0
0.884,1.949552,7.016354,6.501299,-0.004123,0.008094,-0.003512,0
0.902,1.87358,7.000801,6.533004,-0.003818,0.007636,-0.00565,0
0.925,1.77368,6.994819,6.562316,-0.005345,0.00672,-0.009774,0
0.943,1.749153,7.018747,6.558129,-0.004429,0.007789,-0.009163,0
0.966,1.777269,7.048657,6.532406,-0.003665,0.009774,-0.007941,0
0.985,1.845464,7.052247,6.506085,-0.005192,0.010385,-0.00901,0
1.006,1.858625,7.066604,6.485147,-0.005498,0.010079,-0.010385,0
1.024,1.76351,7.060621,6.507879,-0.007483,0.011148,-0.01405,0
1.046,1.654039,7.022934,6.576075,-0.008094,0.010843,-0.013286,0
1.067,1.62353,7.013363,6.58445,-0.006109,0.011148,-0.011912,0
1.087,1.70369,7.01755,6.579664,-0.005192,0.011301,-0.009163,0
1.107,1.788635,7.038488,6.538388,-0.005803,0.011454,-0.009468,0
1.127,1.808376,7.029515,6.549754,-0.006567,0.01069,-0.011759,0
1.151,1.75693,7.016953,6.573084,-0.00672,0.011606,-0.013286,0
1.168,1.725225,6.984051,6.604789,-0.00733,0.011912,-0.013134,0
1.191,1.755734,6.985248,6.611369,-0.007483,0.014203,-0.011148,0
1.209,1.785046,6.984051,6.602396,-0.007636,0.014355,-0.01237,0
1.231,1.785046,6.965507,6.623931,-0.007636,0.013897,-0.013592,0
1.25,1.721636,6.952346,6.642476,-0.011148,0.014813,-0.014661,0
1.269,1.648057,6.927222,6.678368,-0.009927,0.012981,-0.012981,0
1.291,1.602593,6.924829,6.673583,-0.008399,0.013134,-0.011454,0
1.31,1.560719,6.94756,6.693323,-0.006109,0.011606,-0.010996,0
1.332,1.55354,6.949954,6.671189,-0.005498,0.008858,-0.009163,0
1.351,1.564308,6.945168,6.662815,-0.003971,0.006261,-0.006261,0
1.375,1.610968,7.001997,6.625726,-0.002902,0.006567,-0.004276,0
1.395,1.662413,7.009176,6.605985,-0.002291,0.00565,-0.004429,0
1.415,1.631307,6.975676,6.636494,-0.003054,0.003818,-0.004276,0
1.435,1.664208,6.981658,6.629315,-0.001222,0.002749,-0.004123,0
1.455,1.698904,7.005587,6.607182,-0.002138,0.004429,-0.002596,0
1.475,1.762912,7.042675,6.547361,-0.001527,0.004734,-0.002749,0
1.495,1.798804,7.046863,6.524031,-0.002138,0.005345,-0.00336,0
1.515,1.731207,7.028916,6.55095,-0.003818,0.006109,-0.005345,0
1.535,1.631307,7.022934,6.586843,-0.004429,0.004429,-0.007789,0
1.555,1.51705,6.97448,6.661618,-0.00504,0.00565,-0.007941,0
1.581,1.518246,6.946364,6.696314,-0.003818,0.003818,-0.005498,0
1.601,1.612762,6.929615,6.685546,-0.001069,0.002596,-0.002443,0
1.621,1.749752,6.912865,6.667002,0.000611,0.003054,-0.000153,0
1.642,1.841875,6.91107,6.667002,-0.001069,0.00336,-0.000153,0
1.661,1.832304,6.908079,6.66102,-0.003054,0.003207,-0.00504,0
1.68,1.7336,6.874579,6.708877,-0.003054,0.003512,-0.006109,0
1.699,1.674378,6.926025,6.68435,-0.001833,0.003512,-0.005956,0
1.721,1.703092,6.972685,6.620342,-0.002138,0.005345,-0.00336,0
1.74,1.715056,7.000801,6.591628,-0.001527,0.003971,-0.003054,0
1.759,1.691726,7.054639,6.565307,-0.002291,0.004123,-0.005192,0
1.781,1.635494,7.035497,6.580262,-0.002596,0.004581,-0.00565,0
1.8,1.643271,6.998408,6.594021,-0.003054,0.004429,-0.005803,0
1.822,1.682154,7.003194,6.598208,-0.002443,0.008094,-0.004429,0
1.841,1.719841,7.004988,6.601798,-0.003818,0.007025,-0.006109,0
1.863,1.722234,6.984051,6.602396,-0.003818,0.005956,-0.005956,0
1.883,1.689333,6.982256,6.613163,-0.004429,0.006414,-0.006414,0
1.903,1.649253,6.978069,6.631708,-0.004123,0.007636,-0.00672,0
1.923,1.592423,6.975676,6.659823,-0.00336,0.007025,-0.006567,0
1.943,1.539183,6.966703,6.687341,-0.002749,0.004581,-0.005498,0
1.965,1.530808,6.949355,6.673583,-0.001833,0.00504,-0.004276,0
1.984,1.599004,6.967301,6.640681,-0.000611,0.004276,-0.001069,0
2.003,1.655833,7.033104,6.581459,0.001374,0.008247,0.006261,0
2.025,1.713261,7.046265,6.579664,0.000458,0.009468,0.008247,0
2.044,1.701895,6.999006,6.604789,-0.000305,0.009927,0.005803,0
2.066,1.677369,6.932605,6.639484,-0.000764,0.007941,0.002596,0
2.085,1.601995,6.946364,6.688538,-0.001374,0.003207,-0.004429,0
2.107,1.555335,6.953543,6.7011,-0.00168,0.002596,-0.002138,0
2.127,1.478764,6.943373,6.711867,-0.001222,0.000916,-0.003054,0
2.147,1.479363,6.958328,6.702296,-0.000458,-0.001374,0.000153,0
2.169,1.532005,6.993024,6.656833,0.002749,-0.000916,0.004276,0
2.188,1.588834,7.037889,6.602994,0.00336,0.000916,0.011148,0
2.206,1.604986,7.031908,6.575477,0.006109,0.005803,0.018784,0
2.231,1.57029,7.0343,6.598208,0.006261,0.006872,0.022907,0
2.252,1.576272,7.062416,6.579664,0.006872,0.005192,0.019853,0
2.269,1.684547,7.057631,6.53779,0.005192,0.002291,0.017257,0
2.292,1.779662,7.037292,6.503692,0.00565,0.005345,0.017715,0
2.31,1.778465,7.007381,6.559923,0.005345,0.007789,0.017104,0
2.331,1.755734,6.994819,6.601798,0.003665,0.007483,0.013439,0
2.354,1.786242,6.978667,6.609574,0.000305,0.002138,0.003207,0
2.375,1.811965,6.955935,6.600003,0.000153,0.001527,-0.000764,0
2.392,1.819143,6.950552,6.595217,-0.00168,0.002291,-0.000764,0
2.415,1.782055,7.000801,6.595217,-0.003054,0.004276,-0.005192,0
2.435,1.807179,7.006185,6.570691,-0.003665,0.006872,-0.004734,0
2.457,1.785644,7.016953,6.564111,-0.003665,0.008094,-0.005956,0
2.476,1.76351,6.998408,6.576075,-0.004581,0.008247,-0.008247,0
2.495,1.668994,6.986444,6.6012,-0.005345,0.009621,-0.010843,0
2.517,1.639682,7.009176,6.60419,-0.005803,0.009927,-0.010843,0
2.536,1.698904,6.99781,6.593423,-0.005803,0.010385,-0.011148,0
2.561,1.767099,6.990632,6.592227,-0.006872,0.012217,-0.010232,0
2.576,1.806581,6.972685,6.595816,-0.006261,0.013439,-0.012065,0
2.598,1.799403,6.993622,6.592227,-0.007941,0.014508,-0.014508,0
2.618,1.769492,6.972087,6.617351,-0.010079,0.014966,-0.016493,0
2.64,1.660619,6.942775,6.658627,-0.011148,0.016188,-0.018631,0
2.661,1.590629,6.963114,6.674779,-0.012065,0.01741,-0.0197,0
2.679,1.516451,6.942177,6.704091,-0.010996,0.016341,-0.01909,0
2.702,1.427319,6.941578,6.73759,-0.010537,0.016646,-0.016951,0
2.723,1.381855,6.937989,6.759126,-0.008858,0.012523,-0.015424,0
2.739,1.314258,6.949355,6.778268,-0.006109,0.009316,-0.010996,0
2.761,1.393221,6.932007,6.745367,-0.003665,0.006109,-0.003512,0
2.784,1.472184,6.933204,6.734001,-0.002749,0.005192,-0.002902,0
2.802,1.514058,6.954141,6.69452,-0.002596,0.003665,-0.002902,0
2.821,1.412364,6.939186,6.725626,-0.000305,-0.001833,-0.001222,0
2.842,1.311865,6.941578,6.772884,0.001069,-0.002749,-0.000153,0
2.863,1.281955,6.971489,6.742376,0.001069,-0.00504,0.001222,0
2.882,1.29033,6.933802,6.750153,0.003207,-0.009621,0.004887,0
2.901,1.334597,6.972087,6.73759,0.008247,-0.012981,0.013439,0
2.923,1.39681,6.973882,6.704091,0.00901,-0.016035,0.013592,0
2.943,1.509871,6.962516,6.671189,0.012828,-0.018937,0.020922,0
2.964,1.635494,7.033104,6.585646,0.012217,-0.018326,0.020617,0
2.983,1.56371,7.075577,6.578468,0.009621,-0.021838,0.017868,0
3.005,1.501496,7.129415,6.578468,0.008705,-0.022907,0.016951,0
3.025,1.518246,7.082157,6.562914,0.010385,-0.020617,0.020769,0
3.046,1.592423,7.09771,6.506085,0.011301,-0.020311,0.022755,0
3.066,1.658824,7.115656,6.518049,0.009774,-0.020769,0.021533,0
3.085,1.632503,7.115058,6.477969,0.008552,-0.021075,0.01909,0
3.107,1.533799,7.095317,6.542575,0.007941,-0.020617,0.016951,0
3.126,1.514058,7.098309,6.539584,0.010996,-0.021991,0.020159,0
3.146,1.590629,7.046265,6.544968,0.010996,-0.021991,0.021991,0
3.168,1.678565,7.055238,6.529415,0.013897,-0.019242,0.021686,0
3.189,1.779064,7.032506,6.518049,0.013897,-0.017715,0.020159,0
3.209,1.761716,7.026524,6.549156,0.013439,-0.017562,0.01741,0
3.227,1.708475,6.969096,6.642476,0.013134,-0.017562,0.015577,0
3.246,1.621137,6.945168,6.682556,0.012523,-0.019548,0.014661,0
3.268,1.569093,6.891329,6.757929,0.012217,-0.020464,0.016035,0
3.287,1.641476,6.887142,6.718448,0.01405,-0.024587,0.01741,0
3.309,1.749752,6.911668,6.686145,0.014813,-0.025198,0.017562,0
3.328,1.765903,6.888338,6.716653,0.014508,-0.024129,0.020006,0
3.35,1.792822,6.81775,6.725626,0.014508,-0.024587,0.021686,0
3.369,1.688735,6.715457,6.873981,0.01405,-0.027183,0.016951,0
3.391,1.508076,6.634699,6.972685,0.014966,-0.034056,0.016951,0
3.41,1.504487,6.597012,7.134799,0.017868,-0.04047,0.021991,0
3.432,1.521237,6.528817,7.109076,0.024587,-0.037263,0.038332,0
3.451,1.978864,6.600003,6.970293,0.029169,-0.032987,0.054214,0
3.47,2.172683,6.785447,6.647261,0.033445,-0.021838,0.071471,0
3.492,1.794617,7.086943,6.527022,0.045662,0.009927,0.108734,0
3.511,2.394019,7.45125,5.980262,0.065057,0.056352,0.184481,0
3.534,2.552544,7.146763,6.267401,0.04612,0.066432,0.158061,0
3.552,2.761317,7.200003,5.979065,0.027489,0.026267,0.078038,0
3.575,2.917449,7.29452,5.976673,-0.005345,-0.011454,0.002443,0
3.592,2.622534,7.122237,6.002994,-0.041844,-0.073915,-0.122937,0
3.614,2.970689,7.166504,5.928816,-0.086743,-0.173944,-0.304363,0
3.635,2.641078,7.352546,5.959325,-0.130572,-0.250913,-0.465326,0
3.652,2.217548,7.365108,6.034101,-0.149204,-0.28451,-0.527634,0
3.675,1.459024,7.393822,6.171688,-0.151647,-0.284663,-0.537408,0
3.695,0.985843,7.38784,6.3009,-0.152869,-0.278554,-0.530536,0
3.716,0.79681,7.51107,6.510272,-0.124769,-0.237474,-0.454178,0
3.736,0.470788,7.461419,6.385247,-0.088728,-0.138819,-0.28054,0
3.764,0.31346,7.370492,6.640681,-0.04948,-0.108429,-0.220675,0
3.775,0.230907,7.402197,6.619146,-0.004887,-0.035736,-0.084757,0
3.795,1.542174,7.459625,6.126822,-0.003665,0.002291,-0.004581,0
3.815,2.719443,7.097112,5.953941,0.000305,0.049938,0.058032,0
3.837,3.288337,6.822536,6.45105,-0.052076,-0.040164,-0.065821,0
3.855,1.785046,7.077371,5.968298,-0.085063,-0.157756,-0.332921,0
3.882,1.487738,7.085148,6.638288,-0.15516,-0.277943,-0.500298,0
3.896,1.459622,7.679764,6.077171,-0.135765,-0.308487,-0.561996,0
3.918,0.989432,8.322835,5.626722,-0.142942,-0.259618,-0.512668,0
3.937,0.661017,8.168498,5.699105,-0.098807,-0.143095,-0.360258,0
3.959,2.1003,7.82453,6.082555,-0.084299,-0.078343,-0.230296,0
3.978,1.877768,7.241878,6.327819,-0.082161,-0.061392,-0.221286,0
4.001,1.027717,7.35793,6.224928,-0.101709,-0.064294,-0.28619,0
4.02,1.135394,7.82453,5.921638,-0.075136,-0.037263,-0.234267,0
4.042,0.917647,7.677969,6.016753,-0.081856,-0.027031,-0.223424,0
4.062,1.02353,7.383653,5.983851,-0.07758,-0.010537,-0.1996,0
4.08,1.58704,7.369894,6.135197,-0.092393,-0.025504,-0.199295,0
4.099,1.478166,7.538588,6.214758,-0.092699,-0.023976,-0.227089,0
4.125,1.339383,7.313663,6.513862,-0.103083,-0.009621,-0.219453,0
4.14,0.848256,7.150352,6.289534,-0.091477,0.004276,-0.209679,0
4.162,0.135793,7.380661,6.345766,-0.090408,0.004429,-0.214414,0
4.181,0.623928,7.042077,6.727421,-0.108734,-0.025809,-0.21365,0
4.203,0.469591,7.000801,6.160322,-0.102473,-0.026878,-0.21701,0
4.222,1.073181,7.466205,6.863812,-0.098197,-0.014508,-0.192881,0
4.241,1.162912,7.351948,6.025726,-0.077885,0.01405,-0.150425,0
4.263,0.750748,7.704889,6.314659,-0.073609,0.046578,-0.136681,0
4.283,1.045065,6.539584,6.574878,-0.07926,0.046578,-0.111941,0
4.303,0.997807,6.85783,7.587042,-0.065057,0.034667,-0.133779,0
4.325,0.760918,6.201598,7.910073,-0.084757,0.014661,-0.144317,0
4.343,0.136989,5.454439,7.406384,-0.062766,-0.059559,-0.249691,0
4.366,-0.080758,7.101898,7.628319,-0.063225,-0.08659,-0.271835,0
4.385,1.919044,5.238487,7.896913,-0.08094,-0.124311,-0.320093,0
4.406,1.468595,6.157929,7.96451,-0.102473,-0.144775,-0.336281,0
4.426,1.706681,5.647061,7.909475,-0.097127,-0.166919,-0.385914,0
4.447,1.063011,5.855835,7.543374,-0.105069,-0.172264,-0.396451,0
4.466,-0.046062,6.7011,7.264011,-0.132252,-0.178525,-0.398742,0
4.488,0.145962,6.623931,6.826723,-0.160199,-0.194866,-0.303142,0
4.507,1.648057,7.080362,6.472585,-0.153938,-0.146913,-0.274431,0
4.528,1.010369,6.623931,7.19761,-0.124922,-0.10965,-0.244193,0
4.546,1.025923,6.202196,7.814361,-0.091324,-0.094989,-0.237779,0
4.568,0.416949,6.193821,7.569096,-0.073151,-0.099571,-0.257021,0
4.587,-0.081356,5.766703,8.096115,-0.100793,-0.135765,-0.268628,0
4.608,0.562313,5.377271,8.250452,-0.098502,-0.206167,-0.337656,0
4.63,-0.634098,5.749355,8.29113,-0.122173,-0.316123,-0.486859,0
4.649,-0.774676,6.348757,7.519445,-0.115912,-0.407294,-0.578031,0
4.67,-0.249452,7.288538,6.668199,-0.111941,-0.423177,-0.586125,0
4.689,0.765703,8.184052,6.242276,-0.103847,-0.383012,-0.510683,0
4.708,0.79681,8.158329,6.181259,-0.097433,-0.287565,-0.422413,0
4.731,0.187238,7.336394,6.796215,-0.062461,-0.176998,-0.271988,0
4.749,-0.628714,6.49771,7.363314,0.010996,-0.082161,-0.087354,0
4.772,-1.005584,6.400801,7.639685,0.022144,-0.036805,-0.005956,0
4.79,-0.842872,6.74776,7.722835,0.045968,0.007941,0.102625,0
4.812,0.562912,7.035497,7.02772,0.091324,0.073609,0.233503,0
4.831,0.384048,7.220941,6.879365,0.114995,0.154549,0.343764,0
4.859,-0.232702,6.905686,6.937391,0.143553,0.242208,0.463035,0
4.872,-0.851845,7.038488,7.130611,0.160963,0.286954,0.558483,0
4.895,0.037089,6.848856,6.793822,0.182343,0.313526,0.631176,0
4.914,0.5001,6.962516,6.373283,0.185397,0.318719,0.625831,0
4.932,0.722632,7.195218,6.083153,0.175776,0.317192,0.615141,0
4.955,0.8333,7.649256,6.102894,0.163712,0.323453,0.608269,0
4.973,1.551147,7.787441,6.535397,0.153327,0.318261,0.588721,0
4.995,1.182054,7.935796,5.58425,0.156381,0.312305,0.508698,0
5.015,1.172483,7.462018,6.102296,0.12202,0.301767,0.483041,0
5.036,0.679562,7.563114,5.96411,0.092851,0.268475,0.385914,0
5.055,0.784248,6.781857,6.352346,0.074984,0.247248,0.361632,0
5.077,0.94337,7.243672,6.556932,0.071013,0.212428,0.289397,0
5.096,1.494916,7.080362,7.078568,0.062919,0.14508,0.16249,0
5.119,0.946361,7.408777,4.932804,0.063683,0.12706,0.126449,0
5.137,0.649053,8.088339,6.117849,0.013286,0.101709,0.074373,0
5.156,0.877568,6.902695,6.543772,0.002749,0.098502,0.068417,0
5.182,1.615754,6.946962,8.045268,-0.015272,0.077122,0.029474,0
5.197,1.091127,6.980462,5.389235,0.0281,0.012065,-0.122326,0
5.219,2.143371,7.275377,7.739585,-0.075442,-0.073762,-0.214414,0
5.241,1.521835,7.195218,7.309475,-0.049022,-0.095906,-0.326965,0
5.261,0.332602,6.850053,5.233103,-0.04948,-0.111025,-0.386677,0
5.279,0.425324,6.821339,6.659225,-0.089186,-0.146608,-0.400727,0
5.299,0.157926,6.63769,7.353742,-0.092393,-0.191964,-0.45372,0
5.321,0.392423,7.174281,7.387242,-0.067501,-0.199295,-0.485179,0
5.34,0.838086,6.769295,6.276374,-0.090408,-0.224035,-0.46441,0
5.362,1.668396,6.961319,7.329216,-0.151647,-0.253814,-0.486859,0
5.382,1.201795,6.172884,5.931209,-0.117897,-0.27382,-0.54367,0
5.399,-0.432503,7.513463,6.329614,-0.144928,-0.304058,-0.60384,0
5.422,2.156531,6.934998,10.491929,-0.144928,-0.356898,-0.657138,0
5.441,-0.822533,6.155536,4.167699,-0.193339,-0.330325,-0.797789,0
5.463,1.182054,7.622935,8.218149,-0.14279,-0.45036,-0.809549,0
5.482,0.525823,6.343971,6.948159,-0.195477,-0.472504,-0.826042,0
5.504,-1.922633,6.512665,4.979464,-0.193644,-0.525955,-0.788321,0
5.523,1.238286,6.908677,8.63151,-0.176234,-0.533132,-0.777784,0
5.543,0.017946,7.73121,6.937989,-0.205709,-0.469602,-0.774577,0
5.565,-1.895115,5.309075,8.275578,-0.150273,-0.437074,-0.731663,0
5.589,-2.290529,7.253243,9.142377,0.035583,-0.352927,-0.521526,0
5.608,-2.1338,7.101299,5.322236,0.05681,-0.30757,-0.337961,0
5.626,-2.497509,6.739385,8.039286,0.065973,-0.180663,-0.089034,0
5.646,-5.361119,7.640283,7.939984,0.268322,-0.01741,0.338877,0
5.667,-3.768097,7.725826,6.969096,0.362701,0.1237,0.556192,0
5.688,-1.761716,7.874181,7.250851,0.447153,0.421344,1.044731,0
5.708,-1.417149,7.413563,6.27099,0.486248,0.530383,1.267239,0
5.727,-0.175274,7.117451,7.104888,0.520304,0.693026,1.526551,0
5.746,-0.87697,7.415956,6.318846,0.566119,0.879187,1.754556,0
5.768,0.386441,7.098907,7.072586,0.558025,0.923475,1.849393,0
5.787,0.417548,6.266204,6.031109,0.591164,1.01709,1.881616,0
5.809,-0.014357,7.250851,5.682355,0.572686,1.026711,1.860694,0
5.828,1.593022,7.303493,6.128019,0.509309,1.027169,1.824042,0
5.848,1.308276,6.961319,6.847062,0.487165,0.993877,1.639408,0
5.87,2.904887,6.384649,7.532606,0.40088,0.856891,1.517541,0
5.89,2.07039,6.417551,6.425327,0.390037,0.798858,1.267239,0
5.911,0.901496,7.872985,6.096314,0.347277,0.700509,1.084743,0
5.931,1.879562,7.084549,7.390831,0.302225,0.614072,0.935539,0
5.95,1.293919,6.930811,5.973083,0.239612,0.528245,0.779311,0
5.972,1.132403,7.235298,6.884749,0.19227,0.451582,0.699898,0
5.992,-0.1334,6.323034,2.813959,0.21533,0.429591,0.574213,0
6.015,0.355334,8.565108,7.944769,0.111483,0.407294,0.589943,0
6.033,1.271187,6.905686,5.940182,0.185397,0.401949,0.589943,0
6.051,3.082554,6.810572,7.663014,0.01069,0.408974,0.595899,0
6.074,1.176072,8.2014,5.362316,0.290161,0.394924,0.417221,0
6.092,1.026521,6.923034,6.863214,0.096058,0.348346,0.4273,0
6.115,1.200001,7.455437,4.992624,0.152411,0.343917,0.412792,0
6.134,1.041476,7.749754,5.145167,0.119729,0.33735,0.420275,0
6.157,1.26341,7.271788,5.388038,0.057879,0.312915,0.398131,0
6.175,2.042872,7.338189,8.56451,-0.085979,0.239917,0.370031,0
6.198,1.760519,6.704689,6.427122,0.077885,0.324064,0.350026,0
6.217,1.488336,6.345168,5.087739,0.175318,0.32498,0.346666,0
6.237,1.323231,8.578867,3.728018,0.138972,0.307112,0.33399,0
6.256,1.534996,6.749555,8.66142,-0.044899,0.256105,0.298255,0
6.275,1.22034,7.150352,5.436493,0.151189,0.31093,0.290466,0
6.297,1.609173,7.561918,7.858029,0.048411,0.254578,0.2755,0
6.316,1.52363,6.865606,4.189234,0.00336,0.226631,0.266948,0
6.342,1.442872,7.225726,4.547559,0.023671,0.255647,0.256716,0
6.357,1.592423,8.169097,8.283952,0.081856,0.253967,0.240986,0
6.379,2.697309,6.646065,6.071787,0.123395,0.251524,0.20296,0
6.399,2.276173,7.932805,6.300302,-0.021686,0.163254,0.127976,0
6.422,3.377469,6.533004,6.37089,-0.008552,0.163101,0.063377,0
6.44,2.306681,7.323234,5.301897,-0.072235,0.14279,0.03879,0
6.459,2.541178,6.80758,6.056234,-0.005192,0.144011,-0.012828,0
6.482,2.087738,7.366903,6.340382,-0.057116,0.116981,-0.054062,0
6.5,2.270789,5.891727,6.040082,-0.053603,0.082772,-0.136986,0
6.525,2.199004,8.796615,5.456832,-0.067042,0.042455,-0.189215,0
6.541,1.671985,6.578468,7.610373,-0.311541,-0.050549,-0.255647,0
6.56,-0.530608,8.383852,6.493523,-0.089797,-0.02474,-0.340404,0
6.584,2.026123,6.605985,7.261619,-0.239459,-0.14844,-0.305585,0
6.601,4.605586,6.343971,9.955338,-0.173027,-0.139124,-0.320857,0
6.626,2.096113,7.420143,4.469194,-0.145691,-0.13775,-0.41997,0
6.643,0.346959,6.065207,7.997411,-0.198226,-0.06689,-0.384234,0
6.664,-1.109671,7.335796,4.614559,-0.011454,-0.118202,-0.390801,0
6.683,0.105284,7.682157,6.68435,-0.206778,-0.15012,-0.279165,0
6.705,-0.202792,6.874579,7.076175,-0.106596,-0.138666,-0.264504,0
6.725,0.378664,6.585048,7.369296,-0.012675,-0.041539,0.011606,0
6.743,0.161516,7.44108,6.52104,0.014355,-0.000305,0.071013,0
6.765,0.518644,7.356135,7.141977,0.100182,0.059101,0.138361,0
6.784,0.935594,7.432107,4.939384,0.09163,0.150578,0.334601,0
6.806,1.789831,7.735397,8.752347,-0.212123,0.134696,0.455858,0
6.825,2.040479,6.771688,8.051848,0.382554,0.293826,0.451429,0
6.847,0.727418,6.939186,6.453443,0.044899,0.373238,0.50885,0
6.867,0.95354,7.746165,2.3336,0.034667,0.31597,0.499382,0
6.889,2.747559,6.518049,7.28794,-0.097738,0.327729,0.469755,0
6.907,3.101696,6.531807,5.886942,0.057421,0.18158,0.182649,0
6.929,2.519642,8.244471,5.244469,-0.022297,0.143859,0.133779,0
6.947,2.219343,5.84746,7.883752,-0.106443,0.061392,0.013286,0
6.967,2.47358,7.405188,6.8345,-0.075442,0.01573,-0.085674,0
6.989,2.620739,4.615755,5.168497,-0.046273,-0.010385,-0.16921,0
7.009,2.118246,8.155337,9.070593,-0.346055,-0.178525,-0.227853,0
7.027,2.145764,5.323432,8.159525,-0.209985,-0.137445,-0.219759,0
7.05,-0.964308,6.661618,6.5677,-0.082467,-0.144011,-0.337503,0
7.068,0.090927,7.517052,6.853642,-0.083536,-0.157909,-0.22938,0
7.091,0.658624,7.385447,6.419943,-0.085827,-0.120646,-0.108887,0
7.109,0.69691,6.912266,5.341977,0.075136,-0.041386,-0.030696,0
7.128,0.346361,7.339983,7.66122,-0.159894,-0.029474,0.057879,0
7.153,0.282951,5.876174,6.57428,0.034208,0.041844,0.186619,0
7.171,0.598206,7.746763,6.715457,0.169057,0.136376,0.315359,0
7.19,0.377468,7.471589,7.103692,0.167377,0.250607,0.521526,0
7.212,0.408574,5.468198,7.65763,0.025045,0.320857,0.731663,0
7.232,0.148355,6.305088,6.166304,0.216552,0.439059,0.836885,0
7.254,-1.004985,8.522636,2.569891,0.352927,0.501062,0.944244,0
7.272,0.075972,7.604989,10.853246,-0.02642,0.483652,1.070388,0
7.291,1.75693,6.920641,7.366903,0.24404,0.65332,1.2341,0
7.314,2.502892,6.015556,6.559923,0.390495,0.751058,1.267086,0
7.332,0.835095,5.542974,8.258827,0.13943,0.945161,1.300073,0
7.356,0.573081,7.164111,4.847859,0.61957,0.89339,1.344513,0
7.373,1.450649,6.244669,6.406184,0.16921,0.890946,1.351844,0
7.395,1.568495,6.556932,9.404391,0.152258,0.99632,1.328478,0
7.415,2.017149,6.592227,5.705087,0.601091,0.943175,1.268003,0
7.436,3.129812,5.129015,6.133403,0.424246,0.921948,1.193324,0
7.455,2.458027,8.307282,3.57727,0.423024,0.869413,1.062599,0
7.478,2.569891,8.366505,9.726824,-0.072998,0.628274,0.846506,0
7.496,3.708277,3.121437,6.381658,0.098044,0.66065,0.648891,0
7.515,4.966902,7.382456,7.430911,0.130267,0.501215,0.238695,0
7.538,7.938189,4.131806,7.610373,-0.186772,0.257174,-0.095142,0
7.567,3.77408,5.982655,3.521637,0.220522,0.254883,-0.488845,0
7.581,2.934199,6.590432,7.188637,-0.478307,-0.26817,-0.769079,0
7.596,3.667599,6.233901,2.801995,-0.265115,-0.235488,-0.930958,0
7.619,5.0674,7.097112,12.288341,-0.609185,-0.488386,-1.173471,0
7.638,3.078964,6.586244,6.538388,-0.184939,-0.328951,-1.223409,0
7.66,-1.238286,5.86421,5.214559,-0.261756,-0.485179,-1.547015,0
7.679,1.397408,7.612167,7.173682,-0.641866,-0.706007,-1.282205,0
7.701,1.995614,6.326025,7.535597,-0.505338,-0.694553,-1.316414,0
7.72,0.354138,8.565707,4.016353,-0.308181,-0.690888,-1.319773,0
7.742,2.407778,5.56092,14.067405,-0.293979,-0.742659,-1.23639,0
7.76,-0.010768,7.658229,3.982255,-0.494953,-0.631787,-1.108567,0
7.781,-0.3667,5.349155,6.635297,-0.323758,-0.563675,-0.911563,0
7.799,0.827318,7.922038,4.248456,0.040928,-0.424856,-0.574213,0
7.822,0.199202,6.26441,11.24507,-0.547182,-0.381027,-0.231518,0
7.841,-2.918645,9.743574,3.866802,0.22098,-0.043524,-0.073456,0
7.861,1.045065,6.070591,4.066602,0.516181,-0.280234,-0.040164,0
7.883,1.058226,8.480164,9.129815,-0.105221,0.772133,0.466548,0
7.902,1.328615,5.411967,8.352746,-0.14111,-0.032376,0.52458,0
7.924,-0.604786,8.381459,4.511667,0.241292,0.266032,0.548557,0
7.945,0.124427,6.998408,7.203593,0.257021,0.271835,0.668133,0
7.963,0.234497,5.402395,7.972287,0.245415,0.354454,0.754113,0
7.987,-1.923231,6.44088,1.101895,0.347124,0.146455,0.97097,0
8.005,1.251446,8.974281,11.705688,-0.115606,0.904843,0.897819,0
8.023,2.115255,5.415556,10.753943,0.291688,0.487623,1.091004,0
8.046,2.309074,5.169095,2.440081,0.174402,0.98899,1.100778,0
8.065,-0.075374,8.216354,6.866803,0.077122,0.437074,0.89003,0
8.085,1.887339,7.61456,4.825725,0.215483,0.661261,1.013883,0
8.107,3.220141,6.661618,10.66481,0.385761,0.644004,0.988532,0
8.126,4.173681,7.716255,6.433702,0.400422,0.748004,0.847117,0
8.148,2.795415,5.965307,6.178268,0.453262,0.680351,0.888045,0
8.167,3.232105,8.29472,8.830113,-0.161268,0.351553,0.551305,0
8.19,1.149751,7.322636,3.881158,0.189063,0.483194,0.337656,0
8.208,2.197209,4.069593,7.423134,0.375682,0.3233,0.301614,0
8.229,-0.496511,7.449455,3.446263,0.432187,0.165697,0.105374,0
8.248,2.402394,8.990433,7.864012,-0.236863,0.337961,0.096669,0
8.267,-1.220938,5.483153,1.529014,0.102931,0.310167,0.082772,0
8.289,3.184847,7.811369,17.864216,-0.447306,0.212428,0.318413,0
8.31,2.155335,4.990232,7.980662,0.834136,0.619264,0.138055,0
8.328,0.783051,8.781659,1.64686,0.544891,-0.04215,0.133779,0
8.351,3.659224,5.539983,11.042278,-0.556651,0.278554,-0.092088,0
8.369,6.879365,6.996015,13.621741,0.230143,0.255952,-0.32498,0
8.392,13.430315,3.015555,22.763519,-0.282525,-0.235947,-0.386677,0
8.41,-0.841077,11.487942,1.688136,1.298546,0.126602,-1.393688,0
8.433,-16.768902,-2.22712,-20.27319,3.534616,2.636034,-1.935983,0
8.452,6.665207,10.667203,-7.869994,-1.495702,-1.930944,0.386067,0
8.475,7.553543,7.460821,13.585849,-3.808436,-0.699593,0.038179,0
8.492,-1.288535,2.730211,11.340783,-0.134543,-0.338725,-1.148579,0
8.516,-3.185445,5.519644,0.806979,0.589637,-0.321162,-1.605047,0
8.535,3.132803,7.262815,15.876976,0.242055,-0.342084,-0.383929,0
8.555,-1.669592,11.871391,8.934201,-1.110247,0.262519,0.155618,0
8.573,3.079563,3.89731,19.582262,0.822835,0.507018,0.217315,0
8.595,3.264408,7.602596,8.777472,-0.084605,-0.016035,0.891404,0
8.615,-3.022135,7.359724,1.813161,0.8546,0.191659,0.560468,0
8.635,1.057628,10.761122,4.316054,0.052382,0.798553,1.129794,0
8.656,-2.003391,4.568497,1.12702,0.700204,0.514195,0.901331,0
8.675,1.971686,8.018947,6.04427,0.032223,0.717003,1.204167,0
8.697,2.600998,7.625926,8.350353,0.196851,0.660498,0.950353,0
8.718,3.644269,5.524429,15.680167,-0.149815,0.705702,0.793361,0
8.735,5.735596,5.341378,16.052849,0.135459,0.502589,0.540463,0
8.757,2.542374,6.113064,5.4341,0.566424,0.505949,0.120799,0
8.776,2.65723,6.158527,4.509872,0.007636,0.150425,-0.279471,0
8.801,3.594618,6.095118,2.327618,0.153327,-0.124006,-0.595593,0
8.819,7.19761,7.003792,7.102496,0.055283,0.220828,-0.682794,0
8.839,4.549354,4.042674,7.917252,-0.010232,-0.19059,-1.207985,0
8.857,-0.769891,6.702894,-0.746561,0.375529,-0.118202,-1.317635,0
8.879,1.302294,8.026125,8.438888,-0.901942,-0.180052,-1.210887,0
8.898,0.198604,9.166306,6.176474,-0.370795,-0.446237,-1.159879,0
8.917,2.212763,3.531208,8.33779,-0.553902,-0.548862,-0.878271,0
8.939,2.82054,-0.716052,7.685746,-0.362854,-0.481514,-0.713795,0
8.962,-0.104686,2.241477,6.212366,-0.348498,-0.433409,-0.61957,0
8.98,-3.237489,11.614162,3.244069,0.099418,-0.315359,-0.655763,0
8.999,-2.852245,7.666006,0.308674,0.304669,-0.444251,-0.583681,0
9.022,-1.577468,0.880559,1.444667,0.519693,-0.463035,-0.350331,0
9.042,1.364507,9.809975,-2.973082,1.130558,0.254578,-0.763428,0
9.06,11.165508,13.050455,30.226135,-1.709963,-1.387121,0.573755,0
9.083,2.30369,1.802992,19.182661,-3.40328,-0.005956,0.118355,0
9.101,-9.942178,20.772093,-1.522433,1.07726,0.100029,-0.569937,0
9.126,-1.12702,1.488336,-3.711268,-0.012675,-1.19531,1.207527,0
9.144,5.475377,0.725025,-3.128017,0.129961,0.362396,1.189506,0
9.164,9.169296,11.614162,35.047672,-0.91141,-0.699898,0.788474,0
9.184,0.44686,7.988439,4.596612,-4.258338,0.295506,0.311999,0
9.205,-1.699502,3.205784,-0.662812,1.970497,0.555734,-0.656527,0
9.225,-3.391228,5.826523,-0.827318,1.390328,-0.094989,-0.491288,0
9.244,0.79681,7.970492,9.588638,-0.827416,0.110567,0.864985,0
9.266,0.678365,2.888735,11.266605,-1.87001,0.261603,1.1498,0
9.285,0.105284,12.731013,5.053043,1.056949,0.474184,0.911716,0
9.303,-2.449054,11.173883,8.657232,0.140804,0.508087,0.922864,0
9.326,2.038087,-2.80379,10.430314,0.126907,0.519999,1.677282,0
9.347,7.378269,4.630112,12.708282,0.147066,0.556803,1.380707,0
9.366,-0.262014,7.037889,5.469993,0.486248,0.58475,0.610559,0
9.388,1.231705,4.816752,8.093722,0.604603,0.375529,0.261297,0
9.407,3.970889,3.936193,9.110074,0.60781,0.511447,0.286037,0
9.429,2.514258,4.615755,2.894717,0.405309,0.334296,0.241597,0
9.448,1.750948,7.410572,7.548159,0.189368,0.264199,0.099724,0
9.467,3.18066,7.41775,9.128618,0.048869,0.072693,-0.104,0
9.491,3.154937,2.126023,7.074978,0.004581,-0.042302,-0.361021,0
9.509,4.012166,3.208775,5.085945,0.228311,-0.021075,-0.436921,0
9.528,1.838884,9.037691,5.043472,0.162948,-0.08155,-0.70845,0
9.55,2.186442,4.725226,7.868199,0.096211,-0.149967,-0.667675,0
9.569,2.039881,6.73759,3.796811,0.403934,0.00336,-0.626136,0
9.591,-0.656232,12.628121,3.421736,0.318719,0.013744,-0.613614,0
9.61,-2.532205,22.325634,1.119243,0.714101,0.002749,-0.629954,0
9.633,-1.290928,10.057034,-0.005982,0.594982,-0.144928,-0.259312,0
9.651,5.553741,-4.144369,10.797014,-0.478613,-0.305432,0.313526,0
9.674,5.549554,-4.426124,19.36631,-2.004247,-0.238848,0.140193,0
9.693,3.954738,20.561525,-0.072981,1.958127,0.248317,-1.404531,0
9.711,-5.566304,9.945169,0.089731,0.906676,-1.018006,-3.037525,0
9.735,1.149153,-3.409174,7.235896,-2.141997,0.144622,-0.016493,0
9.754,7.975876,5.161917,22.877178,-1.507614,-0.493121,-0.078496,0
9.772,-0.348156,5.733203,2.144567,0.801913,-0.053451,-0.958447,0
9.795,-0.840479,7.71446,7.703094,-0.58078,-0.816879,-0.908356,0
9.814,0.16331,5.688936,7.213762,-0.233961,-0.254731,-0.430354,0
9.836,0.418744,4.617549,9.489336,-0.440586,-0.438295,-0.458301,0
9.855,-3.921238,9.838689,4.220939,0.135001,-0.226631,-0.461966,0
9.876,-2.312663,10.399207,6.801599,-0.101404,-0.188605,-0.076358,0
9.895,-0.670589,4.542774,8.515457,-0.018784,-0.054367,0.20861,0
9.917,-0.31346,7.666006,7.898109,0.054825,0.058185,0.348498,0
9.936,-0.317049,8.204988,7.767102,0.069791,0.140499,0.433561,0
9.958,2.614159,4.104887,6.873383,0.192575,0.224035,0.575129,0
9.978,2.205584,4.948357,6.564709,0.148593,0.228463,0.518166,0
9.997,2.018944,6.741778,7.908877,0.119271,0.189215,0.328645,0
10.016,4.077968,4.919045,7.672586,-0.087659,0.003054,0.245415,0
10.042,2.467598,5.835496,7.897511,-0.040928,-0.089034,-0.175929,0
10.059,2.852843,8.10449,6.439684,-0.222813,-0.224493,-0.264963,0
10.078,1.386042,4.979464,7.786245,-0.185092,-0.285274,-0.585361,0
10.099,3.658028,5.369494,6.065207,-0.200211,-0.425467,-0.624915,0
10.123,-1.083949,8.391629,7.162316,-0.170889,-0.4273,-0.748004,0
10.141,-1.481157,6.014958,7.450053,-0.178067,-0.453262,-0.73655,0
10.159,1.142573,7.073782,7.460223,-0.124464,-0.462119,-0.573144,0
10.182,0.32004,8.008179,6.352944,-0.016035,-0.385456,-0.558025,0
10.2,-1.811965,7.904091,6.476174,-0.061697,-0.271988,-0.294284,0
10.222,-0.356531,5.674579,8.647063,0.002902,-0.14676,-0.111941,0
10.241,-2.098505,7.092326,6.860222,0.129351,-0.033292,0.103694,0
10.26,-1.079761,6.712466,6.608378,0.248622,0.122326,0.386677,0
10.284,0.833899,7.235896,8.212168,0.176387,0.163406,0.517097,0
10.301,-0.031107,6.812964,6.178866,0.184176,0.2474,0.644462,0
10.323,0.62333,6.984051,6.569495,0.227242,0.326965,0.712116,0
10.343,1.674976,7.109674,7.944769,0.33735,0.391259,0.739299,0
10.364,-0.014955,7.653443,3.191427,0.339335,0.433867,0.730747,0
10.383,2.059024,7.026524,7.402795,0.094684,0.460287,0.78206,0
10.405,0.958325,6.497112,6.851249,0.189063,0.413403,0.545502,0
10.424,1.231107,6.401997,8.279764,-0.135307,0.206778,0.378583,0
10.446,0.733998,6.750153,6.022735,0.174707,0.215941,0.168904,0
10.465,1.377668,5.790631,7.34118,-0.006414,0.046731,-0.049938,0
10.483,2.096113,6.917052,5.372485,-0.092546,-0.098655,-0.180663,0
10.506,1.649253,6.596414,7.573284,-0.157756,-0.171806,-0.430507,0
10.524,1.840081,7.280761,7.273582,-0.052993,-0.242055,-0.552069,0
10.548,0.418744,6.104689,4.977071,-0.088423,-0.29856,-0.606283,0
10.566,1.657628,8.547761,7.91785,-0.088728,-0.318871,-0.596815,0
10.588,0.86022,6.456434,6.422934,-0.039859,-0.251676,-0.53695,0
10.607,0.835693,6.530013,7.719246,0.050854,-0.213497,-0.446542,0
10.629,-0.542573,7.582855,6.218946,-0.13271,-0.229227,-0.374307,0
10.648,0.901496,7.537391,7.515258,-0.03146,-0.241902,-0.348651,0
10.672,0.605982,7.433902,6.657431,-0.041844,-0.20861,-0.280387,0
10.691,0.028714,7.140781,4.598407,0.107054,-0.239612,-0.312763,0
10.709,-0.184247,7.082755,6.232705,-0.036499,-0.205403,-0.242513,0
10.731,0.827318,7.657032,8.599206,-0.248164,-0.198836,-0.168446,0
10.75,1.476372,7.536793,7.164111,0.135612,-0.150884,-0.241292,0
10.769,-2.051247,7.170691,2.731407,0.193339,-0.213955,-0.221744,0
10.79,1.213161,7.77129,9.350553,-0.277791,-0.140957,-0.062919,0
10.81,0.06341,6.336792,7.315457,0.089339,-0.086285,-0.064446,0
10.832,-1.367498,7.499106,5.318646,0.058643,-0.079412,-0.007178,0
10.851,1.136591,7.14437,9.236894,-0.047342,-0.069639,0.13042,0
10.874,-0.413958,6.142376,4.725825,0.110414,-0.00336,0.174707,0
10.892,-1.1336,7.623533,8.001,0.161726,0.064294,0.26145,0
10.912,0.314656,7.412366,6.632905,0.138819,0.077122,0.347582,0
10.935,0.244666,7.206583,5.35394,0.127365,0.116522,0.346818,0
10.953,1.663012,7.013363,9.496515,0.082772,0.18723,0.423329,0
10.975,1.016351,6.943971,4.062415,0.221591,0.16081,0.396909,0
10.995,1.61695,6.175875,9.101101,0.096822,0.184328,0.362701,0
11.018,-0.486939,7.343573,3.697509,0.199447,0.167224,0.21197,0
11.035,1.619941,7.261619,7.401,-0.060476,0.045815,0.207236,0
11.055,2.097309,7.030113,7.872386,-0.119882,0.028863,0.148898,0
11.076,2.209173,5.906085,5.501698,-0.034514,0.047495,0.033903,0
11.095,1.359721,8.221739,6.14417,-0.082314,0.033292,-0.085368,0
11.118,1.611566,6.608976,7.530811,-0.131641,-0.022755,-0.156534,0
11.136,0.921237,6.522236,6.51087,-0.067959,-0.060017,-0.245873,0
11.156,0.287139,6.803393,6.763313,-0.038484,-0.120799,-0.352316,0
11.182,0.980459,7.399804,6.291329,-0.222966,-0.135001,-0.315359,0
11.197,1.306481,7.362117,6.841678,0.022755,-0.120646,-0.415235,0
11.219,-0.356531,6.714859,5.132605,0.010843,-0.173486,-0.397215,0
11.241,0.759123,6.493523,8.867801,-0.174096,-0.219606,-0.319635,0
11.26,0.412762,7.578069,7.91127,-0.222966,-0.148593,-0.262825,0
11.279,-0.643071,7.650452,5.246264,-0.005192,-0.109803,-0.242971,0
11.297,1.244866,5.449055,8.121839,-0.152563,-0.031918,-0.074067,0
11.321,-1.383052,8.647063,6.346364,0.21533,-0.047495,-0.21029,0
11.338,-0.230309,6.865008,8.122437,0.022602,-0.085827,-0.058032,0
11.361,-1.060619,6.197411,3.818945,0.037721,-0.083841,0.013592,0
11.379,2.258226,8.566305,10.564312,-0.122631,-0.033903,0.062003,0
11.402,0.072383,6.360721,3.74058,0.112094,-0.008247,0.040317,0
11.422,1.025923,8.067402,10.950154,0.051465,-0.009927,0.046731,0
11.442,-0.994816,5.922834,2.298904,0.327576,0.038179,0.042455,0
11.462,0.111864,8.126026,8.377272,-0.163864,0.297186,0.128282,0
11.484,0.348754,7.165308,5.328218,-0.002596,0.074526,0.10568,0
11.503,0.545564,6.801599,8.286345,0.038637,0.118813,0.222966,0
11.522,-0.744168,8.154739,4.570889,-0.016951,0.057269,0.230449,0
11.543,2.928217,6.492924,8.930613,-0.191659,0.126602,0.316886,0
11.562,0.805783,7.396215,4.114459,0.10797,0.176693,0.20693,0
11.585,1.402792,6.911668,8.035098,-0.091172,0.15012,0.152411,0
11.603,0.805783,6.809375,3.737589,0.078649,0.144928,0.166766,0
11.626,-1.856232,6.923034,2.443072,0.015424,0.132405,0.088575,0
11.644,8.108678,6.594021,19.647467,0.535118,0.016188,-0.009774,0
11.667,3.109473,11.201401,11.83849,-2.180024,-0.614683,0.74159,0
11.685,-6.629913,-1.107877,-8.35813,2.524399,-0.307876,-0.819322,0
11.707,4.615755,12.64846,-0.314656,-1.380707,-0.575129,0.437532,0
11.726,1.266401,5.325227,11.775679,-1.760054,-0.185856,-0.274584,0
11.745,2.517249,5.672784,14.204991,-3.297295,-1.749669,-0.285885,0
11.767,1.106681,7.987242,1.20359,0.896291,-0.222355,-0.484416,0
11.786,0.683749,7.436893,7.740183,-0.373849,-0.240833,-0.60384,0
11.808,0.914656,6.442077,7.260422,-0.199447,-0.302836,-0.761748,0
11.827,0.666999,6.3344,7.527222,-0.222049,-0.385761,-0.741743,0
11.848,-1.026521,7.482955,4.70728,-0.343306,-0.506712,-0.682947,0
11.87,2.751746,7.125227,10.734202,-0.201127,-0.390648,-0.675464,0
11.888,-1.3669,6.132206,2.92702,0.016646,-0.233198,-0.672409,0
11.907,0.058624,9.436694,12.227921,-0.258701,-0.152716,-0.466243,0
11.929,0.657428,4.962714,3.139383,-0.172569,0.089034,-0.175013,0
11.95,-0.309871,7.60798,12.287145,-0.280692,-0.378125,-0.174249,0
11.97,-1.44347,6.629913,4.222136,-0.02642,-0.08995,0.051465,0
11.989,-0.887737,7.018149,5.184649,0.127976,-0.123089,0.042913,0
12.011,0.901496,7.409375,11.605788,-0.168599,-0.148135,0.197767,0
12.03,-2.186442,6.206384,3.103491,0.062461,0.02306,0.311083,0
12.052,0.884746,6.707082,10.223933,-0.225256,0.052382,0.341779,0
12.073,-0.424128,6.438488,4.051647,0.260076,0.105374,0.285274,0
12.091,2.052444,3.961318,9.919446,-0.094989,-0.047953,0.441044,0
12.115,-0.047258,10.588241,4.572086,0.389884,0.170584,0.365144,0
12.132,0.057428,9.824331,9.080164,-0.227394,-0.012217,0.391717,0
12.151,1.503291,-0.7669,4.677969,-0.087048,0.170279,0.69379,0
12.174,4.405785,7.589435,8.574081,0.369879,-0.397978,0.196546,0
12.192,0.744168,8.321639,7.963314,0.098807,0.062919,-0.182801,0
12.217,2.842075,4.859823,6.469594,-0.145386,-0.130878,-0.019242,0
12.234,1.637289,4.399204,6.413961,0.131489,-0.071318,-0.40989,0
12.257,1.789831,11.459826,6.505486,-0.173027,-0.200975,-0.320246,0
12.275,-2.095515,8.291729,3.399603,-0.014813,-0.326202,-0.846048,0
12.296,3.815356,2.337788,8.718249,-0.666453,-0.212734,0.357203,0
12.318,1.591227,9.33141,8.8014,0.050854,-0.457996,-0.635452,0
12.335,-0.211167,6.586244,7.334002,-0.129656,-0.311999,-0.472962,0
12.357,0.646062,6.366105,6.725028,-0.058032,-0.271682,-0.370031,0
12.376,1.806581,8.087142,7.030113,-0.101404,-0.281609,-0.240528,0
12.395,-1.957927,7.819146,4.825127,0.041539,-0.154549,-0.352011,0
12.417,1.371686,4.995017,9.527023,-0.180358,-0.288328,-0.017868,0
12.436,0.17348,5.820541,7.119844,0.059712,-0.105985,-0.145233,0
12.462,-1.278365,7.609176,6.071189,0.134848,-0.063683,-0.107512,0
12.477,0.73998,6.865606,7.148558,0.078649,-0.100182,0.106901,0
12.499,0.864407,6.665207,8.795418,-0.050396,-0.107818,0.156992,0
12.522,-0.129212,5.955137,5.633303,0.168293,-0.002138,0.125533,0
12.54,0.680758,7.179066,7.260422,0.119424,0.025809,0.181427,0
12.56,0.206381,7.772486,6.573084,0.037263,0.007483,0.292146,0
12.579,1.186242,6.266204,6.507879,0.13607,0.077122,0.329409,0
12.602,0.152542,6.66102,8.720044,0.175013,0.187688,0.25977,0
12.621,0.740579,6.53779,5.096114,0.034667,0.056505,0.467159,0
12.642,2.21037,6.643672,8.060822,0.030238,0.077274,0.406836,0
12.661,-0.601197,7.246065,4.362714,0.155618,0.182496,0.168446,0
12.68,1.389632,6.125626,8.699107,-0.092393,0.06185,0.283899,0
12.702,1.19701,6.071189,6.570691,0.182038,0.140193,0.10629,0
12.721,0.511466,7.70788,2.422135,0.198073,0.138819,0.054062,0
12.743,1.021137,6.215955,7.366304,-0.153022,0.057879,0.056658,0
12.763,4.041478,5.461617,10.643275,0.062766,0.005956,-0.067806,0
12.785,3.983452,7.350153,12.363714,-0.899957,-0.412639,0.087506,0
12.804,-0.621536,5.883353,1.765903,0.456927,0.118202,-0.611934,0
12.823,1.052244,7.577471,11.068001,-0.304974,-0.136834,-0.378431,0
12.846,0.396012,6.691528,7.593024,0.113774,-0.111636,-0.370031,0
12.864,2.263012,6.728617,11.799008,-0.074067,-0.23839,-0.36942,0
12.886,0.927219,6.625726,5.371887,-0.266337,-0.393702,-0.37614,0
12.906,-1.432104,5.327022,1.840081,0.137445,-0.261297,-0.450666,0
12.925,-1.197608,8.203195,7.436893,0.28283,-0.325591,-0.545655,0
12.948,0.605384,6.573084,5.024928,-0.400575,-0.533132,-0.167988,0
12.968,3.769294,7.77787,10.524232,-0.035888,-0.303142,-0.364992,0
12.987,0.503689,6.314659,5.374878,0.121868,-0.194408,-0.43066,0
13.006,2.221138,5.846264,7.146763,-0.06017,-0.306349,-0.198226,0
13.028,0.55334,7.004988,6.076573,0.049785,-0.213039,-0.178525,0
13.047,0.588036,6.387042,6.676573,0.049022,-0.200211,-0.115301,0
13.07,-0.448056,6.777072,6.95115,0.064599,-0.177609,-0.170431,0
13.089,0.794417,6.211169,7.775477,0.142637,-0.135307,-0.034819,0
13.108,-0.920639,5.993423,4.4339,0.122478,-0.164475,0.051618,0
13.131,0.038883,6.282954,3.30389,0.210596,-0.157145,0.105985,0
13.149,3.946961,7.828718,18.442081,-0.410807,-0.181732,0.249386,0
13.17,-1.017548,5.822934,4.246662,0.752585,0.234419,0.240833,0
13.192,-0.189631,7.039684,10.36152,0.26481,0.121409,0.443793,0
13.211,0.097508,6.78425,5.697311,0.316581,0.290313,0.645073,0
13.234,-2.595016,11.2349,3.90389,0.492052,0.336434,0.688903,0
13.251,-0.70349,6.000601,8.274979,0.165544,0.386372,0.963792,0
13.271,-0.745962,6.42413,5.895317,0.371406,0.518624,1.090394,0
13.294,1.142573,6.180661,9.263813,0.38347,0.602618,1.125824,0
13.312,1.085743,6.226723,6.778268,0.307723,0.580169,1.095891,0
13.335,2.611168,5.943173,7.34118,0.352927,0.633161,0.942106,0
13.353,1.80359,6.265008,4.220939,0.283136,0.580322,0.77702,0
13.378,2.152344,8.416156,8.316854,0.022907,0.444404,0.612697,0
13.395,3.757928,4.882555,7.561918,0.010996,0.306807,0.489761,0
13.416,4.140182,4.271787,4.111467,0.12874,0.364534,0.261756,0
13.435,3.924229,7.909475,6.850053,-0.094989,0.198836,-0.082772,0
13.457,2.205584,7.805387,6.727421,-0.068417,0.006567,-0.588263,0
13.481,1.614557,6.443273,4.356133,-0.18387,-0.09896,-0.585361,0
13.496,3.741178,6.290731,9.250054,-0.516792,-0.282372,-0.561843,0
13.517,0.999602,6.519245,5.593821,-0.013744,-0.097891,-0.856891,0
13.537,1.538585,6.713064,7.016953,-0.327729,-0.355829,-0.842383,0
13.556,-0.304487,7.427321,3.906881,-0.058948,-0.316581,-1.001971,0
13.584,1.668994,6.625726,10.117453,-0.06017,-0.303905,-0.847728,0
13.604,-0.025125,7.947761,4.909474,-0.067042,-0.337961,-0.705702,0
13.619,-1.314856,10.1683,6.00778,-0.208305,-0.323606,-0.607658,0
13.641,-0.550349,7.289734,5.276772,-0.28283,-0.355523,-0.378889,0
13.66,-0.120239,5.946164,9.076574,0.149662,-0.164017,-0.48182,0
13.679,0.564108,6.107081,9.938589,-1.100168,-0.423635,0.113163,0
13.701,-0.832104,6.178268,5.191827,0.506712,0.197157,-0.071471,0
13.725,1.071386,7.104888,8.538189,-0.232892,-0.157298,0.289092,0
13.739,0.957727,6.571887,7.073782,0.23335,0.142331,0.152258,0
13.761,-0.426521,6.52104,5.316254,0.032529,0.091935,0.315817,0
13.78,-0.357129,7.334002,6.146563,0.082772,0.119577,0.306501,0
13.803,1.895714,7.329814,8.434102,0.124158,0.157145,0.353233,0
13.824,1.442274,6.489933,4.390231,0.136986,0.207236,0.248011,0
13.842,1.819143,7.389036,7.938787,-0.11805,0.093004,0.306196,0
13.863,0.690329,6.87099,6.059225,0.047189,0.132405,0.172111,0
13.883,1.91366,6.372087,5.221737,-0.00168,0.155618,0.163559,0
13.904,1.546362,6.852446,8.175078,-0.14676,0.028863,0.150884,0
13.923,1.311865,6.845267,7.295716,-0.0562,0.056352,-0.000916,0
13.946,1.237089,7.179066,6.074779,0.031001,0.105527,-0.074373,0
13.965,2.31027,6.282356,8.614161,-0.045968,0.06689,-0.104,0
13.984,1.208375,6.591628,6.881758,-0.145539,-0.063988,-0.157603,0
14.006,1.604986,5.852246,6.398408,-0.056505,-0.016341,-0.244499,0
14.025,0.794417,6.774081,6.832705,-0.259618,-0.154396,-0.26817,0
14.044,0.696311,7.561319,7.634899,-0.0478,-0.072387,-0.328187,0
14.066,0.495314,6.492326,7.083951,-0.200669,-0.154091,-0.284663,0
14.085,1.68694,6.309275,7.960921,0.003054,-0.072235,-0.249386,0
14.107,0.415753,6.416952,5.465207,-0.008094,-0.058643,-0.322689,0
14.125,0.397807,7.747362,7.783254,-0.049175,-0.12706,-0.162337,0
14.147,-0.467199,6.830312,5.338985,-0.130267,-0.117286,-0.144011,0
14.166,0.199801,6.781857,6.534201,-0.104763,-0.114995,-0.176998,0
14.187,1.581656,8.292327,8.958728,-0.195935,-0.136223,-0.112552,0
14.209,0.428315,6.455237,5.653043,0.039553,-0.057879,-0.154091,0
14.227,1.627718,6.501299,7.378867,-0.04444,-0.106138,-0.105985,0
14.25,0.89671,7.289734,8.223534,-0.043066,-0.074984,-0.12202,0
14.268,1.554138,7.018149,7.163513,0.033292,-0.054062,-0.121562,0
14.291,0.732802,6.168098,4.958527,0.039706,-0.010843,-0.127823,0
14.31,-0.036491,6.943373,5.722435,0.016646,-0.058643,-0.138208,0
14.329,2.814558,6.092725,6.909873,-0.183259,-0.176693,-0.096669,0
14.352,0.838684,7.047461,7.725826,-0.121715,-0.15913,-0.244499,0
14.37,1.442872,7.392027,6.198607,-0.047189,-0.112094,-0.309556,0
14.392,3.160919,6.89791,8.319844,-0.063225,-0.177456,-0.277638,0
14.411,-1.047458,6.866803,3.935595,-0.09896,-0.189674,-0.435547,0
14.431,2.49033,7.555337,10.389038,-0.354912,-0.332616,-0.208763,0
14.454,-1.046262,5.901897,5.587839,-0.017104,-0.140499,-0.461508,0
14.472,0.842274,6.616753,8.545966,-0.028558,-0.186772,-0.265573,0
14.495,-1.012762,6.99123,5.290531,0.090866,-0.158519,-0.290772,0
14.515,1.050449,6.456434,9.299107,-0.088728,-0.174707,-0.199905,0
14.534,-0.547956,7.002595,5.5675,0.090255,-0.131794,-0.165544,0
14.555,1.522433,7.70788,7.850253,0.017715,-0.098044,-0.118508,0
14.575,1.089332,6.57428,7.969894,0.048258,-0.08155,-0.092546,0
14.596,0.987039,6.993622,5.255237,0.093004,-0.077122,-0.060017,0
14.616,0.355334,6.816554,6.793223,-0.012065,-0.078038,-0.052076,0
14.635,1.578067,6.650851,6.693922,-0.072693,-0.126754,-0.01573,0
14.656,-0.002393,6.458228,6.577869,0.096364,-0.006567,-0.153632,0
14.675,-0.104088,8.196614,7.918448,-0.050854,-0.08323,-0.038484,0
14.697,0.81356,6.757929,7.55773,-0.059712,-0.08995,0.045204,0
14.716,2.396412,5.207978,8.95454,0.054672,-0.054062,0.006414,0
14.742,0.526421,6.994221,6.50429,0.171042,0.064904,-0.083688,0
14.757,0.903291,5.557331,7.589435,0.08155,-0.016341,0.080481,0
14.779,-0.41994,8.073982,6.941578,0.085368,-0.026573,0.029169,0
14.802,-0.047258,6.425327,7.386643,0.027794,-0.042608,0.01573,0
14.82,0.71665,6.432506,4.573282,0.094684,-0.046731,0.034056,0
14.839,1.638485,7.413563,7.019943,-0.024435,-0.038484,0.084757,0
14.858,1.589432,6.184848,7.307082,-0.011606,0.025504,0.126602,0
14.88,1.290928,6.851249,7.819745,0.111177,0.087048,0.100335,0
14.898,0.800997,7.671988,5.514858,0.09896,0.115148,0.085979,0
14.919,2.522633,5.271986,8.298907,0.005345,0.061086,0.048869,0
14.941,1.957927,6.155536,6.161518,0.020617,0.057574,-0.012217,0
14.96,2.365305,6.681359,7.991429,-0.03879,-0.042913,-0.119424,0
14.982,1.859223,6.458228,5.487939,-0.186619,-0.183565,-0.241902,0
15.001,2.428117,5.776274,8.024929,-0.093157,-0.182038,-0.497397,0
15.02,1.789831,7.305287,5.565705,-0.419359,-0.419511,-0.473878,0
15.042,2.140978,5.765506,7.881958,-0.155771,-0.278096,-0.745866,0
15.06,1.406381,7.292127,7.286145,-0.178678,-0.332463,-0.693484,0
15.084,0.940978,6.562914,7.246664,-0.160047,-0.377667,-0.722653,0
15.105,0.512662,6.954739,8.12124,-0.145386,-0.396299,-0.669202,0
15.124,-0.841675,7.211967,5.126623,-0.249691,-0.410196,-0.510988,0
15.143,-0.388834,7.040282,7.895118,-0.06857,-0.368046,-0.518777,0
15.165,0.667598,7.079764,8.845667,-0.175471,-0.382554,-0.395382,0
15.184,-0.389432,5.839684,7.646265,0.043219,-0.275347,-0.290619,0
15.207,-0.168096,7.009176,6.796215,0.013897,-0.288023,-0.172722,0
15.225,0.645464,7.104888,8.829515,0.042455,-0.232587,-0.149509,0
15.245,0.171087,5.943771,6.588039,0.078954,-0.164628,-0.053451,0
15.264,0.2668,6.266204,7.663613,0.084299,-0.180969,-0.025198,0
15.286,-1.116252,7.25444,6.408577,0.052534,-0.167835,0.088575,0
15.305,0.787239,6.577271,7.506285,0.114995,-0.133321,0.059254,0
15.326,1.033699,7.432107,7.881958,0.115301,-0.128587,0.111788,0
15.346,-0.176471,6.400801,5.013562,0.118355,-0.105527,0.098502,0
15.367,0.244068,7.240083,6.77109,0.082314,-0.101709,0.129809,0
15.389,0.951147,7.012167,8.834899,0.122173,-0.078954,0.167682,0
15.409,0.385843,6.552745,6.753742,0.305891,0.052076,0.153327,0
15.427,0.278764,6.704689,6.973882,0.035125,-0.067042,0.24572,0
15.449,1.259223,7.391429,8.410771,0.112705,-0.004429,0.324369,0
15.469,-1.402792,6.702296,5.900701,0.168293,0.089034,0.349567,0
15.489,0.0335,6.065805,7.054639,0.14508,0.085368,0.450055,0
15.507,-0.234497,8.022536,7.416554,0.191048,0.153327,0.454331,0
15.53,-0.055035,6.128019,5.828318,0.186161,0.171806,0.532369,0
15.549,0.991227,6.687939,7.307082,0.15516,0.227394,0.571617,0
15.571,1.132403,7.470392,6.536593,0.196698,0.257327,0.553902,0
15.589,0.224925,7.120442,5.761319,0.129045,0.2755,0.502436,0
15.612,1.44706,6.825527,8.499306,0.0562,0.212123,0.509614,0
15.63,1.828117,6.233901,5.522037,0.157756,0.239612,0.339488,0
15.653,2.449054,6.318248,6.827919,0.001222,0.138055,0.222507,0
15.672,0.958924,7.068398,5.520242,0.083841,0.141262,0.004429,0
15.692,1.50688,5.621338,6.205187,-0.065057,0.122631,-0.021533,0
15.715,3.564708,7.219744,10.152148,-0.007483,-0.01069,-0.114384,0
15.733,0.401994,6.725626,4.29751,-0.012523,-0.071318,-0.386525,0
15.755,1.730011,7.61097,9.078369,-0.021991,-0.115759,-0.310472,0
15.775,-0.777069,5.933602,3.326024,-0.047953,-0.164933,-0.444862,0
15.793,0.610768,6.666404,7.552945,-0.062614,-0.140193,-0.222355,0
15.816,0.740579,7.336394,7.64447,-0.251218,-0.201433,-0.177609,0
15.834,1.059422,7.0678,9.33141,-0.021838,-0.110719,-0.19227,0
15.856,-0.933201,7.061818,4.434499,0.085674,-0.104916,-0.170737,0
15.875,1.307079,7.21436,8.154141,0.091019,-0.093004,-0.106443,0
15.897,0.459422,5.062016,7.080362,0.048716,0.046578,0.086285,0
15.915,1.620539,7.087541,7.433902,-0.193491,-0.141262,0.122784,0
15.936,0.35354,7.0343,4.261019,-0.032987,-0.054825,0.154854,0
15.962,1.957329,6.600601,10.340583,-0.02306,0.015577,0.034667,0
15.977,0.357129,7.397411,4.534997,0.110719,0.028711,0.076205,0
15.999,2.27019,6.626324,9.310472,-0.09896,-0.062614,0.029016,0
16.019,0.485145,6.242874,4.183252,0.099571,0.00336,-0.044288,0
16.039,1.861018,7.170093,9.172886,-0.132252,-0.049175,0.010232,0
16.062,-0.242273,6.858428,4.892724,0.007789,-0.01237,0.022297,0
16.082,1.575076,6.326025,8.539984,0.04215,0.012523,-0.02138,0
16.099,1.377668,6.396613,6.168697,-0.020769,-0.035736,-0.003054,0
16.122,0.820738,7.025926,6.430113,-0.109345,-0.064599,0.047953,0
16.14,-0.068794,7.800602,5.895915,0.011912,0.00168,-0.08491,0
16.159,2.64706,7.64447,9.273982,-0.097738,-0.032834,0.029932,0
16.181,0.452243,6.349953,6.23091,-0.039401,-0.034972,0.035583,0
16.2,2.045265,5.582455,7.753344,-0.020006,-0.009774,-0.013134,0
16.222,0.640678,6.141179,5.74098,0.032987,0.024587,-0.026573,0
16.241,0.945763,7.585846,7.722237,-0.08995,-0.021991,-0.016188,0
16.263,0.521037,6.766304,5.693123,0.009927,-0.000305,-0.006414,0
16.284,2.064408,7.049255,8.423334,-0.019395,0.010843,-0.065515,0
16.302,1.402792,6.81117,6.586843,0.008858,-0.046884,-0.10965,0
16.322,0.81356,6.639484,6.069993,-0.038943,-0.08995,-0.154091,0
16.343,-0.605982,6.459424,2.139782,0.127671,-0.127213,-0.221744,0
16.363,3.999005,7.515856,13.882559,-0.384081,0.053451,-0.0956,0
16.384,-0.210568,6.687341,3.405585,0.33903,-0.001527,-0.273973,0
16.403,1.831706,7.493722,11.359925,-0.135612,-0.165086,-0.218842,0
16.425,0.564706,6.893722,4.489533,0.005803,-0.12034,-0.133779,0
16.444,-0.372084,6.666404,5.553741,0.08323,-0.065821,-0.230601,0
16.466,0.982852,7.174281,9.232108,-0.200669,-0.17486,-0.003207,0
16.486,1.919044,6.056832,7.948359,0.144011,-0.003512,-0.060323,0
16.509,0.751346,6.855437,7.213762,0.033445,-0.038484,-0.047342,0
16.527,0.131007,6.324829,5.135596,0.147524,-0.016799,-0.056047,0
16.547,0.457029,6.980462,6.786045,-0.018631,-0.067042,0.0197,0
16.565,1.091725,7.34776,8.283354,0.027183,-0.071318,-0.029474,0
16.589,1.380659,6.865008,6.263213,0.013744,-0.066126,-0.004429,0
16.607,2.511267,5.908477,8.476574,-0.052076,-0.072998,0.002749,0
16.626,1.369293,6.734599,6.524031,0.034208,-0.036957,-0.010232,0
16.648,0.984646,6.632306,6.693922,0.086743,-0.005803,-0.020769,0
16.667,-0.084347,6.971489,4.703691,0.069333,-0.013897,-0.037263,0
16.689,1.106681,6.928418,7.230512,-0.06353,-0.045357,0.048564,0
16.708,1.451845,4.84726,6.96431,-0.100029,-0.034667,0.052229,0
16.73,0.816551,7.491928,8.112267,0.074526,0.045204,-0.056505,0
16.749,2.315654,5.705686,9.820144,-0.060017,-0.078649,0.093768,0
16.771,0.490529,6.973283,4.942974,0.169668,0.057421,-0.032987,0
16.79,-0.144766,8.980862,7.029515,-0.028252,-0.026114,0.017562,0
16.809,1.969293,6.330811,7.328618,0.053909,-0.003971,0.00168,0
16.829,0.838086,6.262017,6.687341,0.011148,-0.027947,-0.055131,0
16.851,2.021935,5.909674,8.836096,-0.057421,-0.077274,0.018631,0
16.87,0.664607,7.738986,5.313861,0.08491,0.006872,-0.120646,0
16.892,1.473979,7.429714,8.873184,-0.002902,-0.057116,-0.011148,0
16.911,1.357329,5.176273,6.134599,-0.057879,-0.062003,0.004734,0
16.935,0.564706,7.448259,6.621539,-0.039706,-0.006567,-0.076358,0
16.952,0.991227,6.903293,7.81795,0.105221,0.029932,0.047189,0
16.971,0.01675,6.536593,5.827121,-0.046426,0.06353,0.100945,0
16.994,1.134198,6.873383,7.839485,0.103389,0.087965,0.149662,0
17.012,-0.100499,6.695716,6.158527,0.020769,0.091477,0.153327,0
17.035,0.427119,6.797411,6.975078,0.045968,0.101556,0.184787,0
17.053,0.456431,6.562914,6.034101,0.062308,0.115606,0.211512,0
17.074,1.127618,6.241678,5.991628,0.040775,0.109956,0.221744,0
17.095,2.749951,6.399006,10.059426,0.00901,0.090866,0.293368,0
17.115,-0.671187,7.039684,4.531408,0.145233,0.186466,0.061392,0
17.136,2.095515,8.021938,7.060621,0.095906,0.127213,0.13607,0
17.155,2.751746,6.405586,8.825328,-0.197615,0.011301,0.110261,0
17.177,0.911067,7.764111,5.106882,0.072998,0.108581,-0.071318,0
17.196,2.091327,6.172884,7.5344,-0.088728,0.055894,-0.068111,0
17.218,2.138585,6.572485,5.999404,-0.149051,0.004429,-0.133016,0
17.24,1.592423,7.232904,6.782456,-0.105527,-0.037568,-0.335976,0
17.256,0.653839,5.919245,5.483751,-0.033903,-0.009927,-0.379347,0
17.282,1.318445,6.799804,7.826324,-0.154091,-0.12874,-0.355218,0
17.297,1.592423,7.506285,4.975276,-0.154549,-0.146913,-0.341168,0
17.317,0.759123,6.190232,8.751151,-0.122326,-0.116675,-0.502284,0
17.341,0.481556,6.056832,5.151149,-0.133474,-0.182954,-0.380569,0
17.361,3.230311,7.673782,13.028919,-0.325133,-0.237474,-0.388205,0
17.38,-0.620937,6.227919,2.235495,0.0562,-0.131641,-0.433714,0
17.4,1.44347,7.639086,10.719247,-0.028863,-0.191812,-0.382401,0
17.419,-0.298505,5.645865,3.979862,-0.113163,-0.145386,-0.305432,0
17.442,1.042673,6.931409,8.904889,-0.135765,-0.204945,-0.343153,0
17.46,-0.409173,6.934998,5.751149,0.051007,-0.153022,-0.274736,0
17.483,0.16331,7.18445,7.589435,-0.227547,-0.24343,-0.164475,0
17.501,1.124627,7.180263,6.706484,0.004581,-0.121104,-0.110719,0
17.523,1.018146,7.913663,8.241479,0.20464,0.003512,-0.210901,0
17.542,-0.671187,6.058627,5.489733,0.194102,0.005192,-0.104152,0
17.561,0.584447,7.302895,9.460024,-0.087965,-0.075136,0.036041,0
17.583,0.046062,7.48774,5.528018,0.116522,-0.030543,0.07926,0
17.602,1.574477,6.120242,8.244471,0.051007,-0.004123,0.071166,0
17.623,1.162314,5.103292,6.604789,0.03146,0.001985,0.178373,0
17.646,0.416351,7.064809,7.973483,0.085979,0.050091,0.090408,0
17.664,1.503889,5.861817,6.581459,0.03146,0.011759,0.145539,0
17.685,1.104886,6.479166,5.934798,0.129809,0.046273,0.05116,0
17.703,0.340379,5.946763,4.580461,-0.140804,-0.082009,0.083078,0
17.726,3.092125,6.257829,11.839686,0.000458,0.026725,-0.026725,0
17.744,0.175274,7.031309,4.331009,0.060476,-0.037568,-0.057421,0
17.766,1.596013,6.667002,8.739784,-0.02978,-0.126449,-0.205403,0
17.787,0.565903,7.722237,5.991628,0.023671,-0.156381,-0.27046,0
17.808,1.40698,6.132804,6.99781,0.000916,-0.160963,-0.272598,0
17.826,0.989432,6.741778,5.633303,-0.059101,-0.186619,-0.235488,0
17.848,1.195215,6.80758,7.811968,-0.034208,-0.166155,-0.193033,0
17.871,1.401596,6.338587,7.642675,-0.076969,-0.158519,-0.132558,0
17.888,0.683749,6.819544,6.838089,0.04948,-0.08659,-0.211817,0
17.907,0.903291,6.463612,7.559525,0.000611,-0.130878,-0.124311,0
17.929,0.521037,5.868996,6.902097,-0.038332,-0.123089,-0.097738,0
17.95,0.691526,7.789236,7.526025,0.094073,-0.055589,-0.187994,0
17.968,0.588634,6.583253,6.372685,0.043982,-0.103694,-0.059101,0
17.99,2.049453,6.18784,9.222537,-0.130878,-0.16982,0.032223,0
18.009,0.096311,6.108278,6.675377,0.022297,-0.073609,0.000305,0
18.031,0.119043,7.711469,8.073383,0.080023,-0.016951,0.032681,0
18.05,-0.488136,6.369096,5.646463,0.137292,0.00168,0.117133,0
18.072,1.828715,6.541977,10.515858,-0.104,-0.063225,0.253662,0
18.092,0.425324,6.36431,5.031508,0.184939,0.06017,0.178983,0
18.11,1.615155,5.833103,8.467003,-0.087506,-0.040775,0.195019,0
18.132,1.026521,6.741778,5.398806,0.158672,0.06185,0.047342,0
18.151,1.214956,7.06421,8.430512,0.002902,0.0,0.114384,0
18.174,1.535594,6.658627,5.797809,0.11469,0.016493,-0.010079,0
18.192,1.344168,6.489335,7.006185,0.050091,-0.032834,-0.047495,0
18.215,1.7336,6.104689,9.353543,-0.029322,-0.072998,-0.071777,0
18.234,0.879961,6.223134,6.373283,0.115453,-0.063225,-0.142331,0
18.256,1.564906,6.658627,8.942576,-0.017104,-0.128892,-0.134543,0
18.282,0.298505,6.687341,4.608576,0.167377,-0.109803,-0.199905,0
18.3,0.594616,7.942975,6.221937,-0.105221,-0.119882,-0.085063,0
18.315,1.359721,5.715257,7.553543,-0.146455,-0.155771,-0.030543,0
18.335,0.940978,6.675377,8.081758,0.057574,-0.052534,-0.030543,0
18.356,1.150349,6.391229,6.943971,0.048869,-0.063377,0.00504,0
18.376,1.214357,7.293324,8.803793,0.041233,-0.031765,0.052993,0
18.395,0.642473,6.675975,6.472585,0.140193,0.011912,0.043982,0
18.419,0.460618,6.805188,7.175477,0.02642,-0.011301,0.124922,0
18.436,1.421935,6.973283,7.738389,0.223424,0.074831,0.05116,0
18.455,0.240479,6.250053,5.063213,0.234878,0.126449,0.134848,0
18.477,1.024128,7.130611,5.987441,-0.047647,0.002291,0.209985,0
18.496,1.477568,6.1675,7.145566,0.027642,0.069333,0.178678,0
18.519,3.138187,7.680363,10.633105,0.034056,0.097738,0.149051,0
18.539,0.856032,5.489135,6.744769,0.285121,0.200058,-0.012523,0
18.558,1.04686,7.358528,6.872187,-0.149204,-0.065057,0.102167,0
18.58,1.533201,5.850451,7.007979,-0.05452,-0.030391,-0.042455,0
18.6,1.640878,6.67777,8.163713,0.007178,-0.072998,-0.070249,0
18.62,1.960918,6.348158,8.123034,-0.011148,-0.067806,-0.175929,0
18.639,-0.254237,6.861419,4.396811,0.111025,-0.116522,-0.231823,0
18.661,-0.277567,6.430113,3.92064,-0.025656,-0.111177,-0.192881,0
18.68,1.995016,6.415756,10.343575,-0.371711,-0.217621,-0.098502,0
18.701,1.225125,6.226124,5.919245,0.054214,-0.121715,-0.166155,0
18.721,0.995414,7.050452,9.300901,0.090561,-0.089644,-0.178983,0
18.743,0.615554,6.3009,6.986444,-0.058948,-0.146913,-0.063683,0
18.762,0.737588,6.812366,6.51446,-0.034667,-0.105221,-0.03711,0
18.784,1.042074,6.71785,6.420541,0.084452,-0.078649,-0.036652,0
18.802,0.269193,7.249654,7.647461,0.040928,-0.086896,-0.025045,0
18.822,0.412164,7.130013,6.843473,0.087506,-0.060476,0.033598,0
18.843,1.165903,6.873981,7.945966,-0.071624,-0.148287,0.123547,0
18.862,1.18684,6.345168,7.186244,-0.016799,-0.057269,0.156992,0
18.884,1.676172,5.842675,7.30768,0.088881,0.013744,0.109192,0
18.903,-0.272782,7.1677,5.790032,0.133474,0.021228,0.057574,0
18.926,0.698704,6.757929,8.006983,0.123089,0.026878,0.194866,0
18.944,0.919442,5.361717,8.642876,0.109192,0.051924,0.26145,0
18.966,-1.151546,8.285149,5.176273,0.246331,0.115606,0.301614,0
18.986,1.324427,7.089335,7.935796,-0.085368,0.095753,0.459676,0
19.007,0.637687,6.216553,5.505885,0.202502,0.223424,0.380874,0
19.026,1.492523,6.229115,8.190034,0.126754,0.229991,0.437837,0
19.045,0.890728,6.365507,6.539584,0.14111,0.238848,0.421497,0
19.067,0.783649,7.093523,6.38106,0.165086,0.240223,0.441197,0
19.086,0.899103,7.042675,6.94756,0.058643,0.203723,0.48747,0
19.108,2.343172,5.186443,8.997611,-0.146302,0.15348,0.579253,0
19.127,0.532403,5.709873,7.929814,0.067806,0.275805,0.467617,0
19.149,0.133998,6.751349,6.326025,0.149051,0.323606,0.494953,0
19.168,0.409173,6.836893,7.887341,0.175471,0.337045,0.552985,0
19.19,1.272383,7.042675,7.488338,0.178373,0.384845,0.557414,0
19.21,1.121037,6.623333,6.693323,0.21869,0.424704,0.547029,0
19.229,1.211965,6.662217,6.863214,-0.021991,0.31429,0.579558,0
19.251,2.306083,5.986244,8.13141,0.116981,0.329103,0.509156,0
19.27,2.287539,6.446264,7.006185,0.057574,0.31933,0.353691,0
19.291,2.294119,7.385447,4.971687,-0.007483,0.227089,0.326202,0
19.313,3.425924,6.470192,8.143373,-0.007941,0.260687,0.136681,0
19.331,2.581856,6.393024,6.415157,-0.067042,0.1237,-0.066584,0
19.351,2.825325,5.946763,7.634301,-0.117286,0.07758,-0.117744,0
19.375,1.944168,6.299704,5.793622,-0.041997,0.08323,-0.291688,0
19.395,2.123032,6.468398,7.738389,-0.096822,0.007178,-0.419511,0
19.414,1.675574,6.673583,5.462216,-0.057116,-0.055436,-0.498924,0
19.432,2.147558,6.399006,7.088737,-0.213803,-0.175165,-0.549626,0
19.455,2.318645,6.259624,7.697112,-0.296422,-0.262366,-0.549015,0
19.475,0.815354,6.735796,6.602396,-0.206472,-0.239612,-0.611018,0
19.494,1.155733,6.595217,6.955935,-0.259312,-0.27382,-0.604145,0
19.516,0.527617,6.15434,7.73121,-0.03375,-0.198836,-0.691652,0
19.535,0.583251,7.245467,4.850252,-0.220675,-0.299018,-0.465479,0
19.555,1.054637,6.270392,8.035697,-0.246789,-0.218995,-0.354454,0
19.577,0.936192,6.473184,7.468598,-0.099876,-0.135765,-0.284663,0
19.596,-0.44686,7.993822,5.529215,-0.029932,-0.096822,-0.199295,0
19.615,0.678963,7.204191,7.8012,-0.065973,-0.057574,-0.088881,0
19.637,0.897308,6.891329,8.176275,0.103542,0.028252,-0.085979,0
19.656,1.325026,6.863214,8.548359,0.074526,0.051618,0.065821,0
19.679,0.987638,6.00778,7.105487,0.10629,0.070097,0.120188,0
19.699,0.356531,6.85424,6.798009,0.1321,0.134085,0.158367,0
19.719,0.085543,6.699305,6.501897,0.021686,0.15684,0.250607,0
19.741,0.569492,6.664609,6.879963,0.060017,0.149815,0.299782,0
19.759,1.384846,6.343373,8.678768,0.081092,0.18891,0.284052,0
19.781,1.177269,6.289534,6.163911,0.024893,0.17318,0.291993,0
19.8,1.217349,6.675377,7.161718,0.08094,0.127365,0.139583,0
19.819,1.990828,6.187241,7.152745,0.049327,0.086285,-0.00168,0
19.842,1.920838,6.401399,6.893124,-0.081856,-0.00901,-0.040775,0
19.863,2.472982,6.632905,7.98784,-0.168446,-0.09331,-0.108887,0
19.886,1.097707,6.288936,5.885147,-0.080634,-0.067195,-0.253967,0
19.9,1.058824,6.14417,7.339385,-0.191812,-0.178678,-0.207389,0
19.923,1.060619,7.018149,7.751549,-0.001222,-0.076053,-0.265115,0
19.943,0.388235,6.151349,7.84128,-0.033598,-0.104305,-0.210443,0
19.962,0.807578,6.453443,8.013563,-0.018173,-0.100793,-0.12874,0
19.984,0.517448,6.49771,5.842675,0.034972,-0.068722,-0.108581,0
20.003,1.03011,7.125227,8.438888,0.031307,-0.043371,-0.053603,0
20.024,2.006382,6.510272,7.767701,0.062919,-0.004123,-0.000458,0
20.045,0.613161,6.765108,6.049654,0.152411,0.015882,-0.036041,0
20.066,0.951147,6.525228,7.359724,0.011912,-0.015882,0.030085,0
20.083,1.341177,6.954739,6.858428,0.013897,0.008552,0.059254,0
20.107,0.547956,6.840482,5.937191,0.002291,0.023518,0.054825,0
20.128,0.921237,6.72084,7.007979,-0.013897,0.034056,0.097433,0
20.147,1.067797,6.63769,6.284151,0.083536,0.052382,0.057269,0
20.166,1.390828,6.700501,6.869195,0.046884,0.045815,0.036041,0
20.188,1.520041,6.517451,6.871588,0.057421,0.017257,-0.005192,0
20.206,2.050649,6.469594,7.726424,0.02642,-0.007789,-0.043371,0
20.227,1.022932,6.592227,7.376474,0.041692,-0.006414,-0.125838,0
20.249,0.952343,6.741179,6.082555,0.070555,-0.032834,-0.120188,0
20.268,2.708675,6.186045,9.078369,-0.163712,-0.149509,-0.042913,0
20.29,0.532403,6.889534,6.695118,-0.026878,-0.065515,-0.124464,0
20.31,1.338784,6.331409,7.977073,-0.037263,-0.072387,-0.075289,0
20.329,-0.081954,6.89791,5.796015,0.064599,-0.024587,-0.085674,0
20.351,-0.261416,6.610771,7.054639,-0.057421,-0.01909,0.026725,0
20.372,-0.052044,7.387242,6.340382,-0.013134,-0.008247,0.074373,0
20.39,1.444068,6.115457,7.576275,-0.061239,-0.002902,0.185092,0
20.411,1.417149,7.139585,7.978269,0.047953,0.061697,0.097891,0
20.434,0.985843,6.241678,6.844669,0.04215,0.059101,0.177304,0
20.452,1.3669,6.266204,7.87119,0.041539,0.092546,0.189368,0
20.475,1.770091,7.372885,6.631708,0.126907,0.110719,0.174096,0
20.495,1.21017,6.672386,6.959525,0.037415,0.103694,0.156229,0
20.514,1.709074,6.687341,8.046464,-0.02306,0.092088,0.153785,0
20.535,1.560719,6.884749,7.170093,0.257632,0.180052,0.008399,0
20.555,1.481157,6.67777,7.344769,0.147982,0.132405,0.048716,0
20.579,1.172483,5.633901,4.74736,-0.123089,-0.063225,-0.004276,0
20.6,0.644866,6.761518,5.937191,0.033292,0.047342,-0.14279,0
20.615,3.137589,6.897311,10.967503,-0.364992,-0.149356,0.01237,0
20.636,2.208575,6.628717,7.168897,0.007025,-0.002902,-0.158519,0
20.655,1.356132,5.863612,6.625128,0.121409,0.028405,-0.307418,0
20.675,0.613759,6.959525,6.930212,0.01909,-0.031918,-0.181885,0
20.697,1.12702,6.452845,6.452845,-0.03711,-0.072998,-0.174555,0
20.715,1.520041,6.653244,7.337591,0.05681,-0.06521,-0.236252,0
20.739,1.201795,6.596414,6.825527,-0.045051,-0.100335,-0.18555,0
20.758,1.574477,6.839285,7.06421,-0.072387,-0.108123,-0.217315,0
20.777,1.711466,6.522236,7.448259,0.088423,-0.06521,-0.237016,0
20.799,0.754936,7.262815,5.956334,-0.054672,-0.13042,-0.2193,0
20.819,0.487538,7.152745,7.01456,-0.112857,-0.125991,-0.216093,0
20.838,0.73998,6.967899,6.902695,0.004887,-0.09331,-0.200669,0
20.861,0.780658,6.532406,7.345965,-0.001069,-0.076511,-0.13271,0
20.879,-0.105882,6.732206,7.987242,-0.033903,-0.083078,-0.100182,0
20.902,1.066601,6.415756,7.680363,0.023671,-0.062614,-0.020006,0
20.922,1.134198,6.509674,7.994421,0.063377,-0.011148,0.017257,0
20.94,0.084347,6.540183,6.289534,0.05116,-0.001833,0.047953,0
20.962,0.331406,7.073782,6.183053,0.136528,0.041997,0.097738,0
20.982,1.238884,6.763313,7.396215,0.091172,0.059407,0.138361,0
21.003,1.119841,6.611967,6.337391,0.079871,0.046426,0.123395,0
21.023,1.465604,6.652047,7.926823,0.079871,0.116217,0.129503,0
21.041,1.347757,6.838089,8.055437,0.318413,0.160657,-0.033139,0
21.063,1.155733,6.393024,4.849055,0.112246,0.01237,-0.016646,0
21.082,0.921237,8.231908,7.322636,0.071471,0.052382,0.000153,0
21.104,1.289133,6.141179,7.561918,-0.017715,-0.009774,0.163559,0
21.123,0.959522,8.205587,6.169893,0.024129,0.053603,0.084605,0
21.143,0.677767,6.600601,7.60798,-0.083688,0.006567,0.147677,0
21.166,-0.357129,6.016154,6.15434,-0.010079,0.085368,0.138208,0
21.185,2.64048,6.85424,6.486942,0.143706,0.110872,0.140652,0
21.206,1.616352,7.420741,6.710073,-0.064294,0.004276,0.054367,0
21.227,2.682952,6.71785,8.258229,-0.073609,-0.027336,-0.047953,0
21.245,2.679961,5.240282,5.984449,-0.0562,-0.060476,-0.186161,0
21.267,1.867598,6.972087,5.308477,0.010996,-0.043371,-0.323453,0
21.286,3.241078,6.285347,8.385049,-0.227547,-0.198989,-0.28283,0
21.307,0.551546,6.146563,7.101299,-0.098349,-0.154702,-0.509614,0
21.329,0.608375,7.151549,6.70768,-0.023518,-0.170431,-0.551,0
21.348,1.47697,6.376274,7.746165,-0.208152,-0.320246,-0.44135,0
21.368,0.272782,7.041479,6.168697,-0.095753,-0.280998,-0.493731,0
21.389,1.041476,7.245467,7.520642,-0.057421,-0.253051,-0.498771,0
21.408,0.382253,6.632905,6.394818,-0.04383,-0.26649,-0.44868,0
21.43,0.228515,7.272386,7.204191,-0.007789,-0.257021,-0.415999,0
21.45,0.332004,6.672386,6.580861,-0.125227,-0.270155,-0.35308,0
21.471,0.554537,6.554539,7.016953,-0.065515,-0.25748,-0.325591,0
21.489,1.314258,7.602596,9.42473,-0.019853,-0.211817,-0.28787,0
21.512,1.398605,7.125227,7.58465,-0.107207,-0.271071,-0.156229,0
21.53,0.04008,6.666404,6.366703,0.195935,-0.134848,-0.280998,0
21.553,0.728016,6.541379,7.35793,-0.06185,-0.190284,-0.096517,0
21.571,-0.087338,7.057032,6.988238,0.067348,-0.107054,-0.037721,0
21.595,0.21655,6.149554,7.226325,0.023671,-0.090713,0.07926,0
21.613,0.597607,6.693922,6.673583,0.071318,-0.040623,0.134543,0
21.635,1.11027,6.943373,7.550552,0.133932,0.001374,0.182649,0
21.655,0.861416,6.815357,7.627122,0.150578,0.073456,0.21701,0
21.672,-0.445663,7.138388,4.822136,0.108276,0.073762,0.351247,0
21.695,1.627119,6.55753,8.321639,0.031765,0.115912,0.381638,0
21.717,0.424726,6.963114,7.024131,0.211665,0.199142,0.331089,0
21.735,1.91366,6.92782,6.468398,0.136986,0.162643,0.40989,0
21.755,1.767698,6.458228,7.617551,0.177609,0.193644,0.36209,0
21.775,1.231705,6.561718,7.15454,0.102014,0.173333,0.307265,0
21.797,0.800997,6.94098,5.901299,0.100487,0.132252,0.218995,0
21.816,1.998605,6.644868,8.253444,0.128587,0.084147,0.105069,0
21.839,0.928415,7.097112,5.818747,0.110567,0.035277,0.040928,0
21.858,1.196411,6.537191,7.212565,0.00672,-0.030238,-0.033903,0
21.879,0.472582,6.714859,7.058228,0.022907,-0.049785,-0.085521,0
21.899,0.367298,6.120841,6.132804,-0.03207,-0.077122,-0.072846,0
21.92,-0.07657,7.479964,6.963114,-0.123547,-0.130878,0.023976,0
21.939,0.793221,8.45803,8.870791,0.166461,0.024129,-0.026878,0
21.959,0.342174,6.38106,6.457032,0.076969,-0.033292,0.082925,0
21.981,-0.253041,6.8345,7.44108,-0.092699,-0.038332,0.201127,0
21.999,-1.213759,7.530213,6.165108,0.200364,0.116675,0.23503,0
22.02,0.611366,7.222137,8.350353,0.22098,0.145233,0.384234,0
22.042,0.333799,7.84128,5.771488,0.189674,0.242513,0.580932,0
22.06,1.275973,6.511468,6.503094,0.31765,0.36881,0.624304,0
22.082,0.51326,7.149754,5.902495,0.205709,0.355371,0.673173,0
22.103,1.912464,6.35115,4.779663,0.353385,0.423177,0.650113,0
22.122,2.008176,6.308677,7.379465,0.012065,0.270308,0.627511,0
22.142,0.528216,8.921041,4.854439,0.168141,0.344375,0.509309,0
22.163,2.2672,5.779265,9.268001,-0.119729,0.228769,0.52122,0
22.183,0.591625,7.115058,4.681558,0.231518,0.384692,0.230296,0
22.204,2.984448,6.985248,7.478767,0.090103,0.286954,0.392328,0
22.222,1.789831,7.204789,5.261817,0.020922,0.24404,0.271529,0
22.244,1.674976,6.497112,7.950153,-0.099266,0.190437,0.193797,0
22.266,1.009173,8.33779,3.787838,0.186619,0.256105,0.025045,0
22.285,2.776871,6.949954,10.004392,-0.145691,0.079871,0.125227,0
22.306,0.635294,6.524629,2.805584,0.108429,0.166155,-0.009163,0
22.326,2.248655,7.846066,8.316854,-0.05116,0.127823,-0.011606,0
22.348,1.119243,7.823932,5.675776,-0.077885,0.100335,-0.087354,0
22.367,2.047658,7.06122,5.009374,-0.121409,0.098655,-0.133779,0
22.386,2.743969,8.720044,9.347562,-0.149815,0.052687,-0.186772,0
22.407,0.884746,6.384649,3.444468,-0.049327,0.077733,-0.244193,0
22.427,3.533601,7.734799,8.537591,-0.295964,-0.062003,-0.261297,0
22.45,0.008375,6.912266,2.534597,0.134696,0.113468,-0.593761,0
22.468,4.589434,7.225128,13.439887,-0.672409,-0.298255,-0.295048,0
22.49,1.434497,7.292127,3.264408,0.403934,0.208763,-0.672715,0
22.51,-0.152542,6.673583,1.74676,0.006872,-0.242666,-0.718988,0
22.531,2.567499,7.871789,10.929815,-0.646295,0.039248,-0.610254,0
22.551,0.154935,6.318846,3.626323,-0.069639,-0.197004,-0.863763,0
22.57,0.940978,7.539186,7.675577,-0.18723,-0.273973,-0.78603,0
22.591,-0.339183,6.876972,4.054638,-0.19792,-0.274431,-0.821155,0
22.61,2.048256,6.240481,8.55135,-0.26878,-0.373086,-0.772439,0
22.631,1.11027,8.399405,8.334201,-0.320093,-0.408974,-0.674242,0
22.654,0.968495,6.144769,7.19103,-0.26481,-0.376445,-0.755334,0
22.673,-0.026321,6.438488,6.667002,0.029016,-0.285427,-0.918283,0
22.695,-0.666401,7.776674,5.878567,-0.301309,-0.466395,-0.615141,0
22.714,0.971486,6.352346,7.49432,-0.192575,-0.390953,-0.615904,0
22.735,-0.55334,7.211967,5.086543,-0.122478,-0.365908,-0.5791,0
22.755,-1.085145,8.134998,5.103292,-0.199142,-0.352011,-0.50656,0
22.775,0.647259,6.760921,6.585048,-0.15913,-0.31261,-0.355676,0
22.797,-0.33679,6.723233,5.109873,0.050549,-0.224493,-0.379042,0
22.815,0.27996,8.078768,9.265608,0.125533,-0.207236,-0.274736,0
22.837,1.440479,9.278768,9.957731,-0.606283,-0.420428,0.073609,0
22.855,0.759721,4.920241,6.856633,0.301614,-0.059559,-0.244499,0
22.877,-0.367896,7.834101,6.853044,-0.214108,-0.304669,0.08995,0
22.895,0.11007,7.267601,7.972287,-0.000153,-0.0956,0.035583,0
22.917,-1.398605,6.078368,2.936592,0.090103,-0.048106,0.062766,0
22.936,0.564108,6.553343,10.259227,0.068264,-0.052229,0.036346,0
22.958,0.404387,8.162517,7.680363,-0.290008,-0.200058,0.278707,0
22.978,1.452443,5.067998,4.898706,0.184176,-0.040164,-0.059559,0
22.999,-0.790828,7.001997,6.518647,0.027947,-0.110872,-0.006261,0
23.018,-2.456831,7.501499,2.364707,0.067806,-0.137903,-0.039248,0
23.04,2.626721,6.318846,7.202396,0.045509,-0.170431,0.006261,0
23.059,1.591227,5.925825,7.284948,-0.110567,-0.173791,0.060628,0
23.081,-0.499502,5.939584,2.54058,0.04383,-0.126296,-0.097433,0
23.1,6.818348,9.46481,22.052853,-0.352469,-0.180816,0.101098,0
23.119,-1.159323,5.067998,1.015155,0.554513,-0.114995,-0.354149,0
23.141,0.971486,7.217351,8.570493,0.378736,-0.14844,-0.182038,0
23.16,-0.832104,8.986245,7.55773,-0.700051,-0.338114,0.13943,0
23.183,-2.20379,5.000401,0.137587,1.02213,-0.137903,-0.295353,0
23.201,0.481556,6.6012,1.94357,1.178205,-0.390801,-0.267101,0
23.222,1.386641,6.796813,19.181465,-1.746157,-0.325896,0.43234,0
23.242,3.18724,5.693123,10.70848,0.354607,0.037874,0.141568,0
23.264,-1.566701,10.673185,3.294319,0.721584,-0.158519,-0.21365,0
23.283,-0.822533,5.602794,0.071785,1.230282,-0.125991,-0.152716,0
23.305,2.358127,7.817351,-0.676571,0.272751,0.670577,0.541379,0
23.324,1.91366,5.231308,21.781864,-2.417192,-0.69776,0.227547,0
23.342,2.149951,10.137193,8.489137,0.580016,-0.101098,0.207847,0
23.363,-3.506083,8.033304,0.440279,1.030682,-0.100029,-0.369879,0
23.384,2.721836,3.948157,-1.951347,1.673006,0.062919,0.25641,0
23.406,4.26401,7.354939,13.926826,-2.549444,-1.180344,0.680045,0
23.425,3.098705,3.541976,17.92643,0.600022,-0.004123,0.219606,0
23.447,0.117248,8.299505,2.462214,0.564897,0.087659,-0.374307,0
23.466,-3.050849,7.963314,-0.175872,0.930958,-0.215635,-0.51893,0
23.488,0.812962,7.687541,5.075177,-0.231212,0.094226,0.291535,0
23.506,2.325225,3.163311,17.563318,-2.101375,0.209527,0.327271,0
23.527,0.781855,6.071189,7.289734,1.302822,0.434936,-0.21197,0
23.547,-1.986641,7.731808,0.547956,0.36377,0.025045,-0.095753,0
23.569,1.189831,2.856432,3.896113,-0.068417,0.038179,-0.00336,0
23.588,2.694916,10.523036,14.030913,-0.720515,-0.214414,0.3233,0
23.61,-0.399003,11.789437,6.056832,0.516181,-0.004734,-0.073151,0
23.63,2.431706,4.325027,6.477969,-0.03375,-0.314901,0.342848,0
23.65,-1.072583,11.374881,-0.299103,1.10704,0.369726,-0.37278,0
23.672,3.870391,1.710868,9.6682,-1.224326,-0.51221,0.361327,0
23.69,2.310869,7.910672,7.999804,0.760832,1.170875,0.020464,0
23.711,0.653241,8.474779,11.633904,0.16982,-0.419511,-0.272904,0
23.731,-0.801596,5.543572,1.197608,0.100793,0.124769,-0.306196,0
23.754,3.125625,6.21775,8.929416,0.407294,-0.091782,-0.167682,0
23.772,2.270789,1.194617,12.208779,-0.343917,-0.168904,-0.037874,0
23.791,-1.18684,10.779666,5.260621,0.879187,0.01741,-0.448986,0
23.815,1.094118,7.72104,7.296314,-0.713185,-0.794888,-0.569937,0
23.834,1.782653,8.720044,0.322433,0.715628,-0.246179,-0.403171,0
23.852,3.129812,3.814159,10.833505,0.436768,-0.177609,-0.185092,0
23.875,1.473979,5.682355,9.216555,-1.277318,-0.625984,0.249386,0
23.893,3.025126,7.512267,10.682158,-0.29688,-0.217315,-0.363006,0
23.916,-1.755734,7.601399,0.219541,0.550389,0.115148,-0.521068,0
23.935,-1.177269,8.165507,1.548754,0.779311,-0.472504,-0.631329,0
23.955,3.717848,5.259424,15.918851,-0.836274,0.211359,0.058643,0
23.978,1.731805,4.067799,5.51426,0.35476,-0.031154,-0.162795,0
23.995,1.354338,8.514261,9.037691,0.078191,-0.203265,-0.137139,0
24.018,0.467199,6.333802,4.909474,0.080329,-0.087506,-0.246484,0
24.036,-1.719841,7.257431,9.017352,0.033445,-0.118966,-0.265115,0
24.058,-0.358325,6.535397,5.977271,-0.447,-0.324675,0.075136,0
24.078,1.142573,6.291927,5.998208,-0.086896,-0.176845,0.100793,0
24.1,0.280558,8.212168,5.113462,0.246484,-0.056658,0.037568,0
24.119,1.567897,9.116056,8.23131,0.406683,-0.076205,0.120951,0
24.138,2.277967,2.947958,12.724433,-0.487776,-0.18158,0.485943,0
24.159,-1.25683,9.205787,4.675575,0.737925,0.119271,0.135612,0
24.178,0.532403,8.026724,9.682557,0.087201,-0.225562,-0.126602,0
24.201,0.664607,4.797011,5.215755,-0.044288,0.097891,0.563065,0
24.218,-1.855036,8.507083,1.620539,0.329409,0.382707,0.314901,0
24.24,3.678367,2.181656,14.526228,-0.185397,0.069028,0.556956,0
24.259,0.54676,7.959724,1.498505,0.371864,0.355371,1.094517,0
24.281,2.254637,7.832307,9.136993,-0.031612,-0.001833,0.501062,0
24.304,-2.311467,5.176872,5.721837,-0.567341,-0.34239,0.522289,0
24.319,2.860021,9.446864,10.00798,-0.21869,0.147218,0.6269,0
24.343,2.924628,1.648057,6.98106,0.131947,0.153785,0.718835,0
24.362,1.520639,5.544768,3.994219,0.253509,0.200211,0.12202,0
24.381,2.568097,10.923834,8.070991,0.733649,0.338572,-0.708145,0
24.404,-2.925226,5.973083,1.944767,0.565355,-0.064446,-0.691652,0
24.422,0.049651,8.472386,13.074383,-0.283136,-0.235488,0.286037,0
24.444,2.709872,3.004189,6.460023,0.265879,-0.122631,0.816726,0
24.463,1.81376,5.903692,5.672186,0.622319,0.571922,0.334907,0
24.483,1.995614,11.573485,11.648261,-0.19059,1.413388,0.682336,0
24.503,-2.783451,6.155536,0.999602,0.746171,0.18891,-0.184634,0
24.525,-1.919642,9.332606,10.585249,-0.172264,0.152105,0.108887,0
24.544,1.198206,4.463212,2.691327,-0.376445,0.37278,1.263726,0
24.567,1.581058,5.563313,4.036094,0.173791,0.296575,0.868039,0
24.585,2.160121,9.622736,8.975478,-0.338572,0.051007,0.644004,0
24.607,2.655435,3.572484,9.044271,0.465937,0.56673,0.620639,0
24.628,5.266603,9.437891,13.089936,-0.222049,0.2558,0.518471,0
24.645,3.277569,6.958328,1.289133,0.969748,0.763276,0.249386,0
24.667,-0.067597,7.802995,-0.426521,0.622471,0.205098,-0.160505,0
24.686,-1.547558,6.744171,7.303493,-1.16721,-0.775646,-0.073456,0
24.708,5.199006,6.332007,15.231512,-0.318261,-0.024435,0.299935,0
24.727,4.583452,6.096314,7.534998,0.131947,0.172417,0.030696,0
24.749,-0.316451,7.459026,-0.295514,1.089783,0.227547,-0.274889,0
24.768,-1.289731,8.12782,0.558126,0.463646,-0.299935,-0.579405,0
24.79,1.872982,6.845866,20.534605,-2.558607,0.708756,-0.087812,0
24.809,1.813161,6.940382,0.660419,-0.036652,0.344833,-0.098655,0
24.831,2.830709,3.318247,6.008378,-0.380416,0.413097,0.081856,0
24.85,1.180858,7.998608,3.025126,0.585514,-0.307876,-0.429438,0
24.869,2.40718,9.618548,13.922639,-0.446389,-0.566577,-0.409127,0
24.891,1.675574,5.832505,7.567302,-0.268322,-0.215635,-0.467006,0
24.91,0.002393,6.006583,2.423929,-0.020006,-0.187994,-0.524427,0
24.935,3.726223,6.260222,5.105087,-0.63194,-0.510072,-0.054672,0
24.951,-0.445663,5.572286,5.471787,-0.861777,-0.124158,-0.416152,0
24.974,-0.285942,9.363713,11.525628,-0.421802,-0.451124,-0.63927,0
24.992,-1.608575,7.269395,1.179662,-0.254883,-0.290619,-0.327271,0
25.015,-2.949752,6.026324,-1.151546,0.831234,-0.513126,-0.788016,0
25.033,10.272388,11.108679,21.479172,1.599702,1.579085,-0.105069,0
25.055,-0.485743,-1.457229,-0.190828,0.367741,0.312915,-0.049785,0
25.075,1.328017,12.590434,6.926025,1.00304,-1.918268,-0.515875,0
25.093,-0.706481,3.221338,2.230709,-1.64964,0.473878,-0.284052,0
25.115,1.244268,6.913463,5.382056,0.092851,-0.883005,-0.502284,0
25.134,0.154935,10.133006,10.43151,-0.333227,-0.021991,0.124311,0
25.155,-0.281157,7.850851,5.365306,0.77137,-0.095295,-0.31429,0
25.177,1.925026,6.013762,10.90828,-0.514501,0.234419,0.133779,0
25.197,-2.376671,5.885746,-0.202194,0.53527,0.372475,0.139888,0
25.215,4.253242,6.753742,7.203593,1.173013,-0.239612,-0.152411,0
25.239,3.842873,7.226923,13.76232,-1.886961,-0.861777,0.85628,0
25.258,4.260421,7.570292,4.822734,1.064126,1.495092,0.334907,0
25.277,-1.025324,5.134399,6.744171,0.06017,0.292146,0.042608,0
25.298,-0.291326,5.019544,0.310469,0.851698,-0.454636,-0.847728,0
25.319,5.035097,8.032107,9.918848,0.644615,-0.118966,-0.570395,0
25.34,4.04387,4.958527,10.488339,-2.927722,-1.541517,-0.191201,0
25.359,4.913661,5.303093,9.832108,1.01373,-0.176693,-0.333379,0
25.377,2.191227,6.155536,5.503492,-0.214108,-0.731511,-0.628122,0
25.4,-2.856432,8.799605,-0.59342,0.171042,-0.166461,-1.548695,0
25.419,-0.932004,9.268599,6.321837,-0.314595,-0.223424,-0.799469,0
25.441,4.316652,5.11765,8.836096,-0.796262,-0.847269,-0.538172,0
25.459,7.381259,5.635695,23.759533,0.446695,-0.12202,-1.126893,0
25.484,0.533001,4.640281,8.182257,0.152563,-0.474947,-1.096808,0
25.5,-3.218346,6.984051,0.815354,1.338863,-0.768926,-1.681711,0
25.523,-0.830908,6.067002,-2.909074,1.801288,-0.590554,-1.590692,0
25.543,5.429315,3.945765,25.138397,-3.629453,-2.750877,0.200211,0
25.562,-0.879362,6.373881,-0.228515,2.140165,-0.397215,-1.024878,0
25.581,-14.220545,12.731611,-17.127226,4.088365,2.05953,-2.442085,0
25.603,5.639883,5.814559,5.28096,-2.848615,-1.173777,1.197142,0
25.622,7.877172,2.073979,28.569105,-2.02746,0.361021,0.004276,0
25.644,3.015555,5.534,4.133601,0.622624,-0.427453,-0.454331,0
25.663,2.488536,6.84766,9.711869,-0.324522,-0.613766,-1.102153,0
25.686,2.264807,6.693922,5.231308,-0.179747,-0.372017,-0.957378,0
25.704,0.1334,7.119246,3.15733,-0.15348,-0.51221,-1.030834,0
25.726,-0.538385,8.298309,13.735998,-0.713948,-0.888808,-0.813061,0
25.744,0.742373,1.808376,7.268797,0.154396,-0.310777,-0.67638,0
25.768,-0.647857,5.940182,12.598211,-0.053603,-0.337503,-1.259298,0
25.785,2.346163,9.289536,6.68435,0.572991,-0.276264,-0.931416,0
25.807,-3.455236,8.05783,-0.29013,0.962876,-0.361785,-2.010356,0
25.826,-3.112464,6.06102,1.525424,-0.034972,-0.697913,-0.900109,0
25.847,3.899105,2.116452,16.738991,-2.26921,-0.387746,0.088117,0
25.866,3.306881,6.544968,14.271393,0.15516,-0.277485,-0.07926,0
25.888,-1.951945,9.416953,7.514659,0.474184,-0.442113,-0.734718,0
25.907,-3.701697,3.574279,0.705883,1.117577,-0.67974,-0.908661,0
25.927,-1.384846,6.552146,0.585045,0.3233,-1.067944,0.052229,0
25.949,0.436092,8.968299,12.71546,-1.800218,0.062308,0.074678,0
25.971,2.138585,1.15693,8.84806,0.228769,-0.068417,0.643851,0
25.99,5.558527,8.236095,15.418153,0.026114,-0.109039,-0.091935,0
26.009,-2.325824,6.582057,3.592823,-0.136834,-0.175929,-0.282678,0
26.032,-2.80379,6.050252,0.222533,0.899346,-0.554054,-1.113606,0
26.05,-10.825727,5.643472,-1.694717,1.247386,0.647059,-0.743728,0
26.071,15.314663,8.459227,8.578269,1.222646,0.645073,0.365144,0
26.092,2.340779,-0.346361,7.12104,-5.691427,-1.845728,2.288147,0
26.112,5.202595,0.354138,3.148356,0.88438,-0.848491,-0.202349,0
26.131,2.900699,14.536996,3.415156,0.344222,-0.34239,-0.273362,0
26.152,-3.275176,4.640281,8.078169,-1.97462,-0.018631,-1.561218,0
26.171,-4.867001,4.260421,6.016154,-0.93447,-1.180649,-1.386205,0
26.194,-2.394019,9.455837,11.56511,0.142637,-0.567035,-1.152091,0
26.212,1.258625,2.771487,10.835299,-0.855058,-0.692873,0.358119,0
26.235,-1.091127,7.90469,3.541976,0.549473,-0.379652,-0.883921,0
26.254,2.877967,9.328419,9.73819,0.347124,-0.707992,-0.58643,0
26.279,-0.300299,5.118248,7.553543,0.203876,-0.257021,-0.15516,0
26.295,-2.199004,8.566903,0.932603,0.755029,-0.163101,-0.092241,0
26.317,-0.330808,7.742576,5.329414,0.476169,-0.302531,0.117897,0
26.335,2.630908,1.514657,11.979667,-1.096197,-0.972039,-0.296269,0
26.355,1.849652,10.705488,10.316655,-0.32834,-0.086132,0.288481,0
26.375,-0.486939,7.974082,3.085545,0.580016,-0.034056,-0.397978,0
26.396,2.109871,6.059225,11.723635,0.659581,-0.247248,-0.311541,0
26.415,-3.591627,1.558326,9.818948,-1.191034,-0.362243,0.115148,0
26.437,-3.4672,8.769695,0.497109,0.922406,0.297491,-0.126144,0
26.457,0.451047,8.539984,11.612967,0.379958,-0.484874,-0.003665,0
26.478,-0.692124,1.586441,10.742578,-0.607505,0.133474,0.494037,0
26.497,-3.705884,8.012366,1.800599,0.501367,0.08827,0.537866,0
26.519,-0.425324,8.833105,12.151352,0.866054,0.044593,0.093768,0
26.538,-3.405585,6.975078,4.388437,-0.401033,0.379347,0.809549,0
26.56,4.861618,6.368497,5.137989,0.654389,0.181121,1.297629,0
26.579,1.755135,1.774278,8.714062,0.239917,0.268628,0.438448,0
26.601,-2.021935,10.878968,2.480161,0.755945,0.352316,0.17486,0
26.62,4.435695,6.700501,14.693128,-0.345139,-0.198073,0.834899,0
26.639,-0.993021,3.513262,6.435496,-0.51389,0.477544,0.971428,0
26.661,-0.044865,8.955737,0.709472,0.748157,0.457385,0.158825,0
26.682,1.259821,11.236695,9.053843,-0.14676,0.658818,-0.073456,0
26.702,0.20339,-1.542174,1.078565,-0.003665,0.297797,-0.022449,0
26.721,5.266603,1.691127,17.175083,-0.946077,0.936761,0.925766,0
26.743,1.109073,19.257437,4.850252,-0.341932,-0.067348,0.339335,0
26.763,-5.179265,4.82752,1.171885,1.758985,-0.571311,-1.741881,0
26.782,1.179063,11.30848,4.17727,-0.53359,-0.174402,1.076955,0
26.804,1.267598,0.862014,9.169296,-2.177733,0.242208,0.211359,0
26.823,5.199604,3.416353,12.392428,0.220369,0.072998,0.249538,0
26.844,0.810569,11.554342,6.968498,0.239306,-0.101862,0.0,0
26.865,-1.733002,7.132406,1.853839,0.295964,0.205709,-0.200822,0
26.885,4.929813,6.690332,8.846864,-0.442572,-0.269544,0.171195,0
26.903,0.723829,7.876574,6.750153,0.162032,0.074526,-0.611476,0
26.925,-0.081954,5.504688,4.779663,-0.05116,-0.195935,-0.517402,0
26.944,5.534599,1.646262,12.388241,-0.422718,-0.103694,0.23503,0
26.966,2.40359,10.959726,5.189434,0.398437,-0.007483,-0.97494,0
26.987,-1.533201,8.486146,3.094518,-0.094379,-0.153632,-1.0542,0
27.006,-0.668794,6.754938,0.370289,0.554054,-0.552985,-1.38819,0
27.028,2.285146,6.874579,19.301105,-2.418108,-0.719751,-0.252134,0
27.047,-0.55992,3.364309,3.625126,0.540463,-0.239612,-0.784198,0
27.069,1.309472,8.759525,9.783653,0.790459,0.083688,-0.73823,0
27.088,0.884148,5.579464,7.042675,-0.133779,-0.415693,-0.419206,0
27.106,-1.028914,8.021339,1.750948,0.601549,-0.505338,-0.522595,0
27.13,0.655633,7.691729,9.951151,-0.753502,-0.389732,-0.113774,0
27.149,0.789033,4.657031,9.245269,-0.247248,-0.461814,-0.589026,0
27.168,0.263211,7.186244,12.558729,0.138361,-0.191201,-0.176693,0
27.19,-2.749951,6.95773,-0.157328,0.979522,-0.335365,-0.55772,0
27.209,1.671387,3.216552,1.485345,1.037248,-0.072082,-0.107512,0
27.231,-0.867996,13.072588,9.824331,-1.646891,-1.354134,-0.281151,0
27.25,1.626521,4.320241,9.285947,-1.998444,0.102931,0.050854,0
27.271,-0.064606,7.631908,7.78445,-0.01405,0.321315,0.108276,0
27.294,4.250251,2.861218,8.059625,0.331547,-0.097586,-0.151953,0
27.312,2.786442,11.172688,4.939982,0.393397,0.086285,0.242971,0
27.33,0.489332,8.527422,10.134202,0.599869,0.245109,-0.646906,0
27.355,-0.613161,5.448457,4.695316,-0.964097,-0.403629,0.265268,0
27.373,-2.526222,7.315457,0.367298,0.9502,-0.064294,-0.859487,0
27.391,3.862614,4.539185,12.928421,0.727693,-0.158978,-0.191964,0
27.415,2.676372,9.91167,5.163711,-1.971413,-0.722653,0.729525,0
27.433,2.670988,6.538986,8.694321,0.36942,0.436463,-0.341168,0
27.455,-0.194417,7.429714,3.813561,-0.390648,-0.036499,-0.383165,0
27.474,2.627319,4.085146,9.027522,0.444404,-0.028405,-0.39019,0
27.496,0.287737,4.445266,11.270793,-1.023351,-0.287412,-0.083841,0
27.515,2.559722,8.667402,9.980463,-0.19792,-0.385303,-0.372933,0
27.537,-3.716652,8.69791,0.149551,0.418137,-0.011912,-0.95356,0
27.555,1.092324,1.275374,2.432902,1.010065,-0.606436,-1.14415,0
27.575,0.159123,9.698709,7.913064,0.224493,0.778089,0.128587,0
27.597,1.125225,7.698308,14.023137,-2.010509,0.199905,-0.184023,0
27.617,0.193819,7.712068,1.034298,0.594524,0.043371,-0.446084,0
27.637,3.439682,3.993023,8.0345,0.299324,-0.225715,-0.392175,0
27.657,1.466202,9.16152,11.85165,-0.839634,-0.354607,0.102167,0
27.678,2.603391,3.828516,10.296316,-0.351705,-0.348651,-0.052687,0
27.698,-1.939383,4.582854,-0.064008,0.590554,-0.042455,-1.216843,0
27.716,0.304487,12.128021,8.52443,0.963945,-0.697608,-1.792125,0
27.738,1.39023,2.772085,6.670591,-0.717155,-0.489914,-0.463952,0
27.757,-0.829711,7.895717,6.981658,-0.876591,-0.275347,-0.025045,0
27.779,0.589233,8.457432,9.141779,-0.06918,-0.412028,-0.524275,0
27.798,3.224329,6.941578,6.676573,0.082925,-0.325285,-0.5229,0
27.821,0.61675,3.182454,6.836893,-0.130878,-0.425773,-0.62018,0
27.839,-1.485345,9.803992,1.292722,0.185397,-0.460745,-0.603993,0
27.861,3.558726,5.505885,13.886148,-0.889419,-0.666148,-0.214261,0
27.882,-2.548356,4.154538,8.34138,0.667522,0.119882,-0.615752,0
27.902,1.509871,10.430912,4.763512,-0.023976,-0.617584,-0.611018,0
27.921,4.971089,6.53779,11.690135,-0.509919,-0.799775,-0.421344,0
27.94,-1.878964,2.609971,8.451449,-0.029322,-0.376293,-0.921948,0
27.962,-4.320241,10.493126,0.326022,1.075122,-0.564286,-1.546404,0
27.982,1.106681,9.305089,16.000206,0.928514,0.121562,-0.020922,0
28.003,0.73998,2.350948,4.21735,1.209054,-2.068846,-0.207083,0
28.023,2.900101,5.588437,5.73081,-0.067959,-0.25076,0.212276,0
28.042,0.711267,8.165507,3.704688,-0.723264,-0.013286,-0.468075,0
28.066,1.524826,8.953344,15.947565,-0.845437,-0.553443,-0.188605,0
28.083,-2.096113,4.792225,0.750748,0.917061,-0.374613,-1.206153,0
28.105,-2.11705,6.869195,1.307079,0.911716,-0.476933,-1.50456,0
28.124,-2.557927,3.539583,14.796617,-1.419192,-0.526107,0.363465,0
28.146,-0.657428,9.640682,9.159725,0.705243,-0.729983,0.182954,0
28.165,2.395814,6.485147,9.963714,0.008552,-0.073151,0.865137,0
28.187,-2.682354,3.176472,5.421538,0.623998,0.199142,0.031307,0
28.206,-1.97707,8.526225,3.237489,0.576504,-0.047495,0.513432,0
28.224,1.377069,8.526225,8.108678,0.1996,0.499993,0.785419,0
28.247,1.441676,5.368298,13.220943,0.049785,0.098349,0.751211,0
28.265,-2.332404,6.329614,0.129811,0.987157,-0.015272,0.445626,0
28.288,4.43749,6.780063,12.060425,-0.032223,0.814283,1.341612,0
28.307,0.259621,3.30389,10.23829,0.416304,0.159283,1.03282,0
28.329,-2.071586,9.360723,-0.888934,1.535867,-0.099113,0.078649,0
28.348,-1.709074,8.656634,7.310073,-0.194866,-0.084452,0.578489,0
28.37,1.092324,3.27398,6.742376,-1.037096,-0.361327,0.852004,0
28.389,2.620739,7.856833,12.365509,0.154702,-0.36377,0.802829,0
28.411,0.151944,4.969295,5.206782,0.217621,0.117897,0.487165,0
28.43,0.368495,6.296114,5.544768,0.073609,0.123853,0.582154,0
28.448,3.830311,3.966104,10.354342,0.311541,0.161574,0.456163,0
28.47,-1.338186,9.701101,5.611169,0.48182,0.184176,0.06857,0
28.489,2.988636,8.353942,9.075976,0.311999,0.076358,0.328187,0
28.511,1.153939,2.899503,5.087141,0.435394,0.371558,0.182801,0
28.53,1.620539,10.512866,10.291531,0.068264,-0.204487,0.326049,0
28.551,0.491127,0.372682,3.777669,-0.167988,0.022602,0.375682,0
28.574,1.328615,9.248857,5.114658,0.567341,0.302836,-0.229838,0
28.592,1.219741,9.223733,11.547164,-0.418748,-0.293368,0.003054,0
28.617,2.452045,4.262215,5.536393,0.211817,0.092851,-0.132863,0
28.635,2.620739,4.691129,8.398808,0.22266,0.102167,-0.134543,0
28.653,-0.077767,8.405388,6.614958,-0.172569,-0.048716,-0.080787,0
28.675,0.087936,9.920045,8.566305,-0.531605,-0.324369,-0.104,0
28.695,-0.181256,2.395814,1.403989,0.741284,-0.147066,-0.484721,0
28.715,3.626921,7.048657,7.628917,0.643546,-0.23106,-0.05116,0
28.735,1.990828,7.152147,14.437096,-1.148426,0.271988,0.117591,0
28.756,0.155533,8.702098,2.565704,-0.005956,-0.076969,-0.198836,0
28.775,1.835893,4.960321,11.71825,0.059559,-0.030391,-0.26481,0
28.797,1.490728,7.097112,5.922236,-0.034514,-0.107512,0.109192,0
28.816,-2.051247,7.970492,0.978066,0.271682,-0.112857,-0.13439,0
28.835,2.318047,3.72383,11.910275,-0.006872,0.014508,-0.133474,0
28.857,0.78006,9.027522,7.053443,-0.236252,0.219606,0.626442,0
28.876,1.386641,6.019145,7.942377,-0.296117,-0.176082,0.147677,0
28.898,-0.677169,5.762515,4.529613,0.706771,0.291077,-0.024435,0
28.919,0.285344,7.773683,8.266006,-0.558941,-0.019242,0.509461,0
28.939,-0.863809,6.199803,7.003194,0.394313,0.285732,0.430202,0
28.957,-0.409771,7.328019,2.903092,0.252898,0.275805,0.602465,0
28.98,4.100101,5.505287,10.662417,-0.104152,-0.145844,1.032209,0
28.999,1.338784,7.595417,7.704291,-0.950506,0.436616,0.784961,0
29.021,1.488336,7.311868,9.336794,0.046273,0.374155,0.602465,0
29.039,0.592224,5.901299,3.958925,0.414624,0.353385,0.525191,0
29.061,2.316252,5.639285,10.753345,-0.033903,0.163254,0.64095,0
29.081,-0.893121,9.230911,2.260619,0.86025,0.200975,0.212428,0
29.099,1.656431,3.738187,2.206781,0.775798,0.304669,0.514195,0
29.125,3.446861,8.526225,10.83171,-1.123533,-0.874911,0.803134,0
29.141,3.165704,4.839484,11.034502,0.456927,0.525191,0.373086,0
29.162,0.91346,8.55135,3.488735,0.29123,0.569173,0.167072,0
29.181,1.828117,4.865207,9.438489,-0.172111,0.208763,0.384081,0
29.203,1.565504,7.068398,5.553741,0.068722,0.239306,0.296422,0
29.222,3.381058,8.083553,9.863214,0.013134,0.327729,0.292146,0
29.244,-0.855434,3.145365,7.108478,0.060017,0.370948,0.112246,0
29.263,2.560918,8.456235,3.505485,0.342542,0.334296,0.227089,0
29.282,4.184449,5.325825,9.467203,-0.200975,0.12202,0.235641,0
29.304,1.061815,9.815957,3.056233,0.71853,0.567035,-0.338266,0
29.323,2.573481,2.824727,10.454242,0.387288,0.448833,0.074373,0
29.345,1.735993,9.504292,0.672981,-0.197309,0.384998,-0.189215,0
29.364,2.053042,3.766303,9.005388,0.394771,0.046426,-0.440434,0
29.386,3.309872,7.703094,1.039083,-0.16982,0.070097,-0.584598,0
29.405,4.719244,3.890131,15.603597,-1.251967,-0.280845,-0.55833,0
29.424,4.489533,7.884949,5.947959,-0.248927,-0.407294,-1.118341,0
29.446,1.596611,7.49133,9.954741,-0.346971,-0.955545,-1.333518,0
29.465,2.962913,5.112864,5.662615,-0.373697,-0.460134,-1.392619,0
29.487,2.618346,6.675377,9.573085,-0.663552,-0.668439,-1.429424,0
29.507,0.988834,5.402994,1.268196,-0.065515,-0.46105,-1.721112,0
29.526,0.699901,10.305289,7.365108,-0.725249,-1.092684,-1.678504,0
29.548,2.954538,5.48076,10.626525,-0.672562,-0.74495,-1.361618,0
29.567,-0.198006,2.866003,10.080363,0.089034,-0.265268,-1.368795,0
29.587,-1.638485,9.086744,4.844868,0.215788,-0.403476,-1.435227,0
29.609,-3.047858,10.480563,-0.117847,0.850782,-0.48579,-1.189812,0
29.63,2.598605,5.441278,13.330415,-1.326951,0.531758,-0.0478,0
29.649,-2.42692,7.027122,9.363713,1.185688,0.573449,-0.282983,0
29.668,-0.081954,4.59422,7.210771,-0.159741,-0.024129,0.202654,0
29.69,-1.911865,7.98784,1.868794,0.098197,-0.151342,0.006414,0
29.709,4.107878,3.77408,16.555941,-0.396757,-0.080329,0.183565,0
29.731,0.580858,5.773881,0.049651,0.920879,0.1799,-0.306501,0
29.751,2.452643,8.380263,8.812167,0.437379,-0.226784,-0.225409,0
29.77,2.339582,6.851848,8.622537,-1.032362,-0.762359,-0.146608,0
29.793,2.253441,5.015954,4.415954,-0.06353,-0.231365,-0.217162,0
29.812,2.079363,6.92782,10.602597,0.026114,-0.292452,-0.664315,0
29.835,1.204188,8.293523,5.302495,-0.381332,-0.368657,-0.493426,0
29.852,-0.4002,2.938386,7.276574,0.041233,-0.281151,-1.121548,0
29.873,2.192424,9.44806,9.61137,-0.429743,-0.563981,-0.452193,0
29.895,0.775275,3.656233,3.192624,0.239154,-0.364075,-0.914312,0
29.915,-2.155933,7.422536,11.16192,-0.116675,-0.549167,-0.828943,0
29.933,1.119243,5.260621,6.8345,-0.285732,-0.40989,-0.707076,0
29.955,3.326622,5.480162,10.597812,-0.350636,-0.581696,-0.404851,0
29.975,-2.091327,4.945964,4.614559,0.008705,-0.344986,-0.680198,0
29.995,-3.655037,9.209974,1.140778,0.216704,-0.398742,-0.781907,0
30.015,4.668995,6.500701,14.821742,0.272598,-0.530231,-0.78939,0
30.04,-0.80339,8.898309,5.444868,-0.641103,-0.348804,-0.150425,0
30.055,3.284747,5.651847,4.106682,0.129656,-0.457385,-0.606741,0
30.075,4.917849,5.754738,15.996617,-0.269697,-0.670577,-0.220675,0
30.095,0.601197,4.673182,4.244269,0.101862,-0.35873,-0.493426,0
30.116,-2.06022,5.931808,7.198209,0.290008,-0.478002,-1.546404,0
30.137,-2.252244,9.05145,6.215955,-0.487776,-0.733343,-1.015715,0
30.156,4.833502,5.231308,14.213964,-0.995404,-0.912785,-0.136223,0
30.179,-1.124627,2.560918,1.751546,0.613766,-0.132863,-0.558483,0
30.198,-4.000201,9.661619,6.903892,0.463799,-0.303294,-1.34375,0
30.217,2.246262,7.619346,11.66202,-0.38683,-0.971122,-0.651793,0
30.239,1.022932,-0.525823,6.686743,-0.240833,-0.439517,-0.360563,0
30.259,-2.116452,10.066605,7.27119,0.11866,-0.682489,-0.786641,0
30.28,-2.042872,9.430114,7.440482,0.085979,-0.496175,-0.519235,0
30.3,3.603591,3.181258,7.211369,-0.271682,-0.66737,0.158367,0
30.319,0.604786,6.476174,7.600801,0.26649,-0.34468,-0.353385,0
30.347,-1.075574,8.633903,11.038689,-0.102167,-0.27886,0.056047,0
30.361,-0.281755,4.821537,5.911469,0.259159,-0.218079,-0.071624,0
30.381,-2.964109,8.338987,4.381258,0.094684,-0.132558,0.366366,0
30.402,2.234896,4.316652,11.398211,-0.095295,-0.213497,0.657596,0
30.421,-5.042874,8.781061,7.518847,0.501215,0.021838,0.031307,0
30.445,0.494716,4.814957,7.600801,0.6466,0.35644,1.232572,0
30.462,0.253639,4.54397,8.950353,0.226936,0.195019,0.987768,0
30.482,-2.204986,6.202196,4.387838,0.378278,0.311999,1.04687,0
30.503,-0.518644,7.310073,6.874579,0.352774,0.38851,1.26617,0
30.522,0.189033,7.941778,12.14537,-0.031001,0.490219,1.422857,0
30.544,-1.119841,3.04367,1.710868,0.93386,0.785878,1.431714,0
30.563,4.251448,5.9342,10.018748,0.411876,0.541379,1.425911,0
30.583,2.285146,6.73101,12.760923,0.067806,0.380416,1.3016,0
30.605,0.209372,6.39781,-0.220738,1.076802,0.392786,0.903164,0
30.626,-0.661017,7.082157,2.663212,0.440281,0.817337,0.952338,0
30.646,2.925824,4.91067,16.584654,-0.805883,0.768468,1.174846,0
30.669,3.232703,9.669994,3.200999,1.21333,1.014799,1.101542,0
30.687,-1.150349,5.35394,0.847657,0.732885,0.395382,0.861472,0
30.707,-0.33679,7.664809,11.807981,-0.207999,0.757778,0.646448,0
30.729,1.636092,4.811368,14.900106,0.127976,0.394924,1.011439,0
30.748,0.618545,6.441479,0.346361,0.959516,0.205403,0.701731,0
30.766,3.412763,5.572884,5.971887,0.316886,0.099266,0.849255,0
30.79,4.076173,5.535197,11.560923,-0.71013,0.350484,0.622166,0
30.809,4.32742,8.632706,5.169095,-0.261603,0.031001,0.426384,0
30.828,-1.231705,4.256233,11.062617,-0.441808,-0.290008,-0.173333,0
30.85,3.368496,7.814361,1.741975,0.469755,0.270613,-0.065973,0
30.871,2.643471,4.624728,1.788635,0.293368,0.252593,-0.197004,0
30.89,1.971686,8.925827,10.84188,-0.516792,-0.968832,-0.25244,0
30.912,3.957729,4.34716,10.08156,-0.175318,-0.296117,-0.421344,0
30.931,3.628716,9.304491,0.732204,0.429438,0.038332,-0.63423,0
30.95,-1.49372,7.12762,11.033903,0.210901,0.241292,-1.233336,0
30.972,0.297906,5.526822,10.785049,-0.427453,-0.322384,-0.633925,0
30.991,3.056831,4.098905,5.234898,-0.225562,-0.381943,-0.357967,0
31.014,-2.134398,8.754142,1.405185,0.048258,-0.324827,-0.710588,0
31.032,5.126623,6.091528,16.441683,-0.122173,-0.430965,-0.811228,0
31.055,1.901098,7.088737,3.748955,-0.289855,-0.248775,-0.300087,0
31.076,-1.055833,4.077968,6.330212,0.074067,-0.477849,-0.696691,0
31.094,-1.386641,10.262816,4.250251,-0.280692,-0.372322,-0.451429,0
31.116,3.172285,6.134599,13.229917,-0.677754,-0.522748,-0.092393,0
31.135,0.945763,7.933403,6.062814,0.489455,0.083688,-0.129809,0
31.155,-1.244268,6.390631,4.942974,-0.107207,-0.191659,0.267101,0
31.177,-3.828516,8.957532,1.195813,0.516028,0.197767,-0.00672,0
31.196,-0.351745,8.024929,10.728819,0.203723,0.131641,0.524275,0
31.215,1.603789,4.60738,13.86222,0.044899,0.5707,0.906829,0
31.239,2.377867,6.089734,2.621337,0.343306,0.508392,1.503186,0
31.257,-0.611366,4.633701,2.462813,1.010676,1.048091,1.117424,0
31.276,-1.339981,10.079765,17.572889,-0.452345,0.056047,1.170875,0
31.299,6.211768,3.51386,18.746569,0.689361,0.739299,1.609629,0
31.319,5.557929,5.234898,7.843673,0.991281,0.949437,1.564425,0
31.339,3.105884,6.848258,7.320841,0.757167,0.78771,1.43767,0
31.359,-1.88016,7.974082,1.998605,0.938288,0.926071,1.037859,0
31.378,1.051047,6.69452,5.033302,0.135154,0.620333,1.181871,0
31.401,1.24008,4.88076,3.537788,0.249538,0.70112,1.040303,0
31.419,2.925824,7.225726,1.094118,0.700051,0.735787,0.887587,0
31.442,1.455434,4.013362,6.239285,-0.373086,-0.150578,0.716544,0
31.461,1.595415,9.849456,6.123831,0.139735,0.297949,0.018479,0
31.484,1.365704,3.162713,11.516057,-0.253509,0.131641,0.390953,0
31.503,4.675575,5.720641,4.372883,0.47342,0.550847,0.303447,0
31.523,3.511467,9.445667,10.343575,-0.006872,0.253662,0.132558,0
31.543,-0.440279,5.038686,8.69791,0.092546,0.278249,0.062308,0
31.564,2.419742,6.323632,8.285747,0.19059,0.297644,0.139277,0
31.582,3.564708,5.197211,5.416752,0.291077,0.340557,0.297949,0
31.605,2.59382,9.896714,0.768096,0.477696,0.67638,0.128587,0
31.624,-1.631905,5.11406,3.818945,-0.116217,0.162795,0.191353,0
31.645,4.222734,8.105088,15.562919,-0.432492,0.072235,0.506254,0
31.664,2.242075,7.272985,7.713264,0.850629,0.823598,0.346055,0
31.685,0.534796,3.105884,4.133003,0.303447,0.52458,0.507476,0
31.706,0.999003,9.136993,2.765505,0.39355,0.498466,0.264963,0
31.724,1.3669,7.454241,8.05783,-0.258549,0.341779,0.34071,0
31.747,3.781258,5.973083,2.650649,0.336892,0.606283,0.268017,0
31.767,4.402794,8.317451,6.80758,-0.049022,0.206472,0.25641,0
31.785,-2.047658,7.37767,7.782656,-0.047647,0.146302,-0.363923,0
31.807,4.470391,4.408177,6.479764,-0.044135,0.075595,-0.009621,0
31.827,5.085945,9.466604,7.460821,0.034667,0.106138,-0.512668,0
31.847,3.01376,3.724428,7.560721,-0.199142,-0.16982,-0.605214,0
31.867,4.462614,6.331409,6.601798,-0.125227,-0.207083,-0.917213,0
31.89,4.091727,8.25464,3.284747,-0.285885,-0.414472,-1.139568,0
31.908,3.829713,4.634897,9.516854,-0.58078,-0.676991,-1.220355,0
31.93,1.855634,7.457232,4.737191,-0.291077,-0.578184,-1.70981,0
31.951,-0.671785,7.856833,6.387042,-0.394008,-0.7225,-1.814879,0
31.969,0.781257,5.905486,7.016953,-0.517708,-0.847422,-1.613752,0
31.991,-1.420738,9.792028,3.931408,-0.290313,-0.791986,-1.578933,0
32.01,1.353739,5.578866,10.593026,-0.504116,-0.748004,-1.393841,0
32.032,0.93021,6.100502,6.501299,-0.078496,-0.577725,-1.39155,0
32.051,0.305085,9.867402,5.417949,-0.368657,-0.784198,-1.30328,0
32.075,2.522633,4.338786,7.727023,-0.291688,-0.734412,-1.256702,0
32.092,0.660419,6.618547,6.48096,-0.425925,-0.820391,-1.155603,0
32.111,-0.175872,9.960723,4.49073,-0.315817,-0.791528,-1.37582,0
32.134,3.059224,3.045465,10.802398,-0.598342,-0.850629,-1.11773,0
32.152,-2.313261,6.627521,7.955537,-0.168293,-0.676075,-1.170722,0
32.175,-3.930211,7.834101,8.505288,-0.103389,-0.662483,-1.380096,0
32.194,-2.578266,6.413363,6.470192,-0.13103,-0.680351,-0.744644,0
32.215,0.397209,6.39422,8.067402,0.07758,-0.510988,-0.554665,0
32.235,-3.598805,10.092926,5.20738,0.016646,-0.450513,-0.284205,0
32.256,2.284547,6.034698,8.013563,0.093004,-0.31933,-0.089644,0
32.275,-0.084945,7.72463,4.712066,0.222202,-0.121257,0.002596,0
32.297,-0.314656,10.319048,6.924829,0.196851,-0.05849,0.119577,0
32.316,-0.942772,5.862415,7.439286,0.123242,-0.001374,0.563065,0
32.335,-3.188436,8.233105,8.505288,0.250455,0.221744,0.408669,0
32.357,0.853639,5.609375,9.586246,0.239459,0.315359,0.912327,0
32.376,-0.562313,3.530012,11.063814,0.249844,0.530841,1.228449,0
32.398,1.103091,4.905885,10.028918,0.126144,0.530078,1.73791,0
32.417,-0.302094,5.053641,8.745169,0.54031,0.824209,1.471726,0
32.439,1.421337,6.495317,4.146163,0.488997,0.830165,1.972941,0
32.458,2.338386,6.551548,7.857431,0.299629,0.859181,1.815185,0
32.48,2.260021,6.533004,4.115057,0.244346,0.780991,1.673922,0
32.499,2.038685,6.105885,5.477171,0.345444,0.769079,1.331074,0
32.521,1.127618,6.998408,6.899704,0.176845,0.609948,1.229823,0
32.539,2.706282,7.41117,6.01077,0.291382,0.586277,1.103527,0
32.558,2.478366,5.508278,7.158129,0.038332,0.262977,0.685238,0
32.581,2.672185,5.977869,5.409574,-0.044135,0.06353,0.24908,0
32.599,1.695913,8.260024,7.328019,0.189826,0.148135,0.21197,0
32.622,-2.033899,8.83131,5.283352,-0.00672,0.077885,0.166002,0
32.641,3.111268,3.492923,10.604392,0.105069,0.076205,0.471129,0
32.662,2.155933,7.884949,7.304689,-0.026267,0.081703,0.251982,0
32.683,4.684548,6.195018,6.225526,0.203876,0.359036,0.642019,0
32.701,1.395016,6.369694,7.082755,0.149356,0.404851,0.636216,0
32.723,-0.976272,6.870392,7.456634,0.17486,0.453262,0.757167,0
32.746,0.081356,6.671788,7.392625,0.239001,0.484263,0.920879,0
32.763,1.316651,7.335198,5.827121,0.301309,0.572228,1.026406,0
32.785,2.311467,6.966703,5.836094,0.336587,0.64996,1.125518,0
32.804,1.210768,7.252047,5.105087,0.42226,0.676685,1.055269,0
32.826,0.732204,9.720842,3.991228,0.399964,0.633161,0.981507,0
32.848,1.474577,4.914259,9.097511,0.167682,0.481514,0.929278,0
32.865,1.986043,7.310073,4.491328,0.329256,0.576198,0.728304,0
32.887,3.732803,6.070591,7.202994,0.155007,0.423329,0.828943,0
32.906,3.80399,5.683552,5.276174,0.122937,0.437379,0.728609,0
32.926,3.504887,8.277371,11.818749,-0.021075,0.380263,0.745408,0
32.947,2.18046,5.982655,6.803393,0.340863,0.604298,0.645837,0
32.966,2.587838,6.311668,5.922834,0.490524,0.675464,0.610712,0
32.988,1.752743,8.247461,4.495515,0.23106,0.481667,0.614072,0
33.007,1.964507,7.176673,6.791429,0.117591,0.403782,0.520762,0
33.028,3.265007,6.499505,6.161518,0.105985,0.344375,0.458759,0
33.051,1.959123,7.406982,5.602196,0.171042,0.365908,0.354607,0
33.068,1.342373,7.12762,5.563313,0.108123,0.314748,0.333532,0
33.09,1.923231,6.576075,6.333203,0.062308,0.284358,0.320093,0
33.111,2.562115,7.418348,7.399804,0.06353,0.292299,0.311236,0
33.129,2.994019,6.844669,6.714859,0.152563,0.310625,0.314137,0
33.151,3.419942,6.319445,6.355337,0.208305,0.358425,0.267406,0
33.171,2.830709,6.756733,7.058228,0.074526,0.260534,0.207847,0
33.192,2.772683,7.143174,4.499105,0.103542,0.247858,0.188605,0
33.211,3.836891,6.568896,7.602596,-0.060476,0.168599,0.124464,0
33.23,3.372684,7.025327,6.199803,0.135307,0.25244,0.038179,0
33.25,2.673979,6.772286,6.083153,0.006872,0.135459,-0.02642,0
33.273,2.669792,6.792625,6.042475,0.075136,0.141873,-0.141415,0
33.291,2.68056,6.80758,6.856633,-0.186925,-0.046426,-0.186772,0
33.315,3.498905,6.259026,6.532406,-0.039553,0.003818,-0.29856,0
33.335,2.620141,7.461419,5.380262,-0.04383,-0.044593,-0.356287,0
33.353,3.046661,6.989435,6.793223,-0.136834,-0.065668,-0.382249,0
33.377,2.312065,6.948757,6.84766,0.017562,0.009316,-0.464868,0
33.395,2.051247,6.924231,5.600401,-0.099876,-0.11469,-0.400116,0
33.416,2.778067,6.797411,6.677172,-0.154549,-0.149967,-0.427758,0
33.435,1.324427,7.484749,2.347957,-0.047189,-0.11805,-0.539394,0
33.454,2.423929,6.606583,6.67777,-0.180969,-0.157909,-0.519388,0
33.48,4.356133,7.553543,12.072987,-0.100945,-0.133321,-0.501978,0
33.495,3.619144,5.506483,7.265208,-0.199295,-0.191964,-0.41661,0
33.517,-0.282353,6.735796,6.408577,-0.374918,-0.447306,-0.680351,0
33.535,2.528615,7.669595,1.958525,0.137597,-0.22938,-0.67073,0
33.559,2.625525,7.409974,8.137392,-0.418901,-0.267406,-0.585514,0
33.579,0.230309,6.061618,5.581259,-0.214108,-0.367893,-0.614683,0
33.6,0.658624,7.502097,5.975476,-0.209221,-0.337045,-0.630718,0
33.619,0.307478,6.99781,6.05085,-0.13943,-0.29688,-0.549778,0
33.638,-0.448056,7.318448,6.935596,-0.100335,-0.135765,-0.154091,0
33.658,-0.349352,7.298707,6.538986,-0.051313,-0.093768,-0.010996,0
33.681,0.116052,7.372287,6.830312,0.045204,0.000305,0.130725,0
33.699,0.016152,7.834101,7.725228,0.209985,0.306501,0.624457,0
33.722,1.509273,6.752545,7.678568,0.047342,0.319635,0.766941,0
33.741,0.892523,7.880761,8.042277,0.228463,0.522748,0.947451,0
33.76,0.879961,6.692725,6.245865,0.270155,0.651335,1.145982,0
33.784,2.332404,6.522236,8.718249,0.28222,0.663094,1.17118,0
33.802,2.54058,6.63769,5.109274,0.358578,0.661719,1.163697,0
33.82,3.815954,6.70768,7.583453,0.300393,0.681572,1.071609,0
33.842,3.175276,6.513862,3.878167,0.341015,0.629038,0.811228,0
33.862,3.470191,6.12742,8.676973,0.163406,0.543517,0.707076,0
33.884,4.233501,7.01755,5.407779,0.150425,0.31597,0.252898,0
33.902,3.945166,6.267401,7.013961,-0.076816,0.0956,0.001222,0
33.924,3.692724,5.882754,6.180063,-0.047189,0.023213,-0.320704,0
33.943,3.195615,7.074978,6.260222,-0.11301,-0.112705,-0.457538,0
33.965,2.353939,6.603592,7.891529,-0.255036,-0.219759,-0.547182,0
33.984,0.627518,6.344569,5.978467,-0.107512,-0.155923,-0.659581,0
34.006,0.715454,8.059625,7.396215,-0.163254,-0.181732,-0.527176,0
34.025,-0.418744,7.264011,6.526424,-0.135765,-0.115759,-0.336281,0
34.043,-0.053839,6.863812,7.110272,-0.028405,-0.049633,-0.152105,0
34.065,-0.247059,7.801798,6.732805,0.061239,0.056047,0.00672,0
34.084,0.978664,6.881758,7.001997,0.085216,0.118508,0.206625,0
34.107,2.041078,6.616753,6.896115,0.060323,0.181885,0.331852,0
34.126,1.904687,6.951748,6.370292,0.077274,0.228311,0.371558,0
34.147,1.70369,6.730412,6.934998,0.115759,0.251065,0.358119,0
34.166,2.900101,6.21416,6.008378,0.138666,0.224035,0.328034,0
34.189,3.226123,9.674182,3.165704,0.154854,0.242361,0.221438,0
34.207,3.899105,5.900103,10.134202,-0.062003,0.165239,0.305585,0
34.229,0.422333,5.563313,6.59761,-0.021533,0.063835,-0.124158,0
34.249,3.339782,6.583253,7.905288,0.133169,0.149662,0.027642,0
34.267,1.988436,6.485746,6.266802,-0.095142,-0.018326,-0.05284,0
34.289,1.774876,7.168298,7.007381,-0.043982,-0.004429,-0.058032,0
34.308,0.707677,6.928418,5.051847,-0.022297,0.026573,-0.080329,0
34.33,0.230309,7.459026,8.056634,-0.0956,-0.01405,-0.034361,0
34.349,-0.02333,7.344769,6.789036,0.094073,0.04047,-0.02474,0
34.37,0.824926,7.409375,5.78764,-0.026878,0.027183,0.12202,0
34.393,-0.151944,7.733603,5.511269,0.048258,0.157909,0.250607,0
34.411,-0.048455,6.954739,7.039086,0.092393,0.245415,0.426842,0
34.43,0.672981,7.126424,6.555138,0.132558,0.30192,0.587957,0
34.452,0.471386,6.758528,6.495317,0.107359,0.380416,0.684016,0
34.471,1.709074,6.951748,7.672586,0.166613,0.425009,0.78771,0
34.495,2.283949,6.415756,4.93759,0.236863,0.472504,0.846506,0
34.512,2.888735,7.076175,6.313463,0.224493,0.523511,0.856432,0
34.535,3.123232,7.093523,7.280163,0.34239,0.589026,0.728456,0
34.554,3.161517,6.709475,4.092325,0.34071,0.509767,0.614988,0
34.576,4.106682,7.846663,5.864808,0.115912,0.349109,0.438448,0
34.595,4.521837,7.49791,7.225726,0.092088,0.34071,0.141415,0
34.614,3.815954,6.26441,6.092725,0.180816,0.272446,-0.09163,0
34.635,2.531606,6.39422,5.202595,-0.129351,-0.041844,-0.370031,0
34.655,3.90389,6.430711,6.898508,-0.292452,-0.219606,-0.550389,0
34.677,1.785644,7.716255,7.599007,-0.006261,-0.064904,-0.89339,0
34.695,1.671985,6.978667,6.016753,-0.384998,-0.410196,-0.758541,0
34.717,0.705284,7.485946,7.305886,-0.209068,-0.359647,-0.922253,0
34.736,0.030508,7.916654,5.732007,-0.31093,-0.418901,-0.755334,0
34.758,-0.091525,7.888538,6.570093,-0.237779,-0.313679,-0.647517,0
34.777,0.27338,7.320841,6.292525,-0.211817,-0.279929,-0.472504,0
34.796,0.796212,8.036893,8.308478,-0.062461,-0.196393,-0.31597,0
34.818,-0.783649,7.475776,5.968896,0.046578,-0.078496,-0.161726,0
34.837,0.921237,6.616155,8.010572,0.026114,-0.013592,0.071013,0
34.859,0.857827,6.876972,5.344967,0.148593,0.059865,0.257174,0
34.879,0.842274,7.432107,6.503692,-0.031612,0.082467,0.352927,0
34.898,1.485943,5.88754,6.740582,0.099418,0.138666,0.428674,0
34.92,1.506282,8.062616,5.541179,0.075747,0.168904,0.377362,0
34.939,2.467,5.835496,8.462815,-0.071471,0.062461,0.410959,0
34.962,1.420738,7.524829,5.795416,0.094531,0.139888,0.270766,0
34.981,1.307678,7.435098,7.049854,0.048869,0.131794,0.30528,0
35.0,1.100698,6.757331,5.396413,0.097586,0.117897,0.311846,0
35.022,0.169292,8.06441,7.051648,0.171653,0.214108,0.402713,0
35.042,-0.278166,6.481558,6.850053,0.132252,0.291841,0.644615,0
35.063,-0.434896,7.049255,6.941578,0.208916,0.315817,0.726624,0
35.082,-0.594616,7.243672,7.666006,0.341473,0.458454,0.836732,0
35.101,-0.282951,7.003792,7.274181,0.106443,0.4076,0.952185,0
35.123,0.028714,6.622735,6.396015,0.435852,0.607047,1.216232,0
35.142,-0.172283,6.962516,7.860423,0.399964,0.695622,1.399797,0
35.164,0.830309,6.914659,8.298907,0.387899,0.817184,1.583514,0
35.183,0.309272,6.331409,5.278567,0.496633,0.928209,1.645364,0
35.205,1.694118,6.851848,7.515856,0.606894,1.014646,1.723097,0
35.223,2.493321,6.632306,7.329216,0.423482,0.971275,1.723402,0
35.245,2.775076,6.441479,6.742974,0.478613,1.043204,1.654069,0
35.264,3.835695,6.425925,5.488537,0.471282,1.002582,1.483027,0
35.287,4.292126,6.48754,7.932805,0.351095,0.909272,1.298851,0
35.306,4.689334,6.380462,4.481159,0.476322,0.987921,0.997848,0
35.325,5.371887,6.01077,8.416754,0.214108,0.73823,0.778394,0
35.347,4.82094,6.615556,2.894717,0.473115,0.842841,0.463188,0
35.366,6.509674,5.419145,8.169695,-0.266032,0.226631,0.293062,0
35.388,6.682556,7.078568,6.323632,0.16982,0.501825,-0.091019,0
35.406,5.516653,6.574878,4.03729,-0.052076,0.086285,-0.714864,0
35.427,4.051647,6.501299,5.953343,-0.242819,-0.113315,-1.194699,0
35.449,3.230311,7.068398,5.752346,-0.301614,-0.195782,-1.387121,0
35.468,2.994019,6.639484,7.310073,-0.346513,-0.379042,-1.453705,0
35.49,1.191028,7.146763,6.028717,-0.424704,-0.447764,-1.55236,0
35.51,0.778864,6.789036,5.673382,-0.313374,-0.39019,-1.568243,0
35.529,3.512065,6.349355,9.153145,-0.583834,-0.566119,-1.278845,0
35.551,0.672383,7.016354,3.275176,-0.042302,-0.15913,-1.604284,0
35.57,-1.074377,7.112665,8.996415,-0.401033,-0.609032,-1.653306,0
35.592,0.428913,6.433702,7.628917,-0.229685,-0.380263,-0.885143,0
35.611,-0.098704,6.625726,7.641479,-0.028711,-0.250607,-0.889572,0
35.63,1.394417,8.172088,4.764708,-0.064752,-0.273362,-0.514501,0
35.652,0.364307,7.17787,6.808178,-0.129961,-0.20128,-0.365144,0
35.671,0.661017,7.34118,7.185048,0.04612,-0.065821,-0.326049,0
35.694,0.742373,6.756733,7.066604,0.047953,-0.065363,-0.180816,0
35.712,0.427717,6.774679,5.334798,-0.078954,-0.09163,-0.038026,0
35.735,0.489332,6.602994,7.993224,-0.046426,0.011301,0.046426,0
35.753,0.102891,8.166703,6.815357,-0.194102,-0.092546,0.168599,0
35.775,1.481157,5.623133,8.817552,0.263588,0.085979,0.036041,0
35.795,1.529014,7.49133,6.530013,-0.168904,0.014203,0.251065,0
35.816,0.877568,6.458827,4.013362,-0.011759,-0.003512,0.213497,0
35.835,3.055634,7.034899,8.587242,0.014661,0.194102,0.258854,0
35.855,1.268196,7.965706,4.855635,0.153632,0.170584,0.279471,0
35.876,2.982055,6.498308,10.864013,0.149967,0.220064,-0.035277,0
35.895,0.682553,6.531807,3.345764,0.251982,0.222966,0.195324,0
35.917,3.017349,7.671988,9.428918,-0.074984,-0.018479,0.04444,0
35.936,1.596611,6.919445,5.47418,0.302378,0.226936,0.059865,0
35.958,-0.715454,7.449455,6.287141,0.024435,0.088881,0.033292,0
35.978,1.277169,7.042077,7.356135,0.057269,0.08491,0.091019,0
35.998,0.015553,7.178468,4.737191,0.084605,0.07758,0.11469,0
36.017,1.122234,6.820143,6.78425,0.125227,0.178525,0.209221,0
36.04,0.272184,7.422536,5.39761,-0.052534,0.099418,0.244193,0
36.058,2.600998,6.929016,8.720642,-0.097127,0.168904,0.296269,0
36.079,1.378864,6.583851,8.184649,0.297186,0.365144,0.148898,0
36.1,0.939781,6.139385,2.977868,-0.109039,0.201433,0.303142,0
36.122,3.302095,7.260422,10.628919,-0.217773,-0.004123,0.290619,0
36.138,1.085743,6.510272,6.686145,0.01573,0.101709,0.067195,0
36.161,1.266401,7.628319,4.875376,-0.153174,-0.005956,0.067653,0
36.179,3.45045,6.655636,7.920841,0.032376,0.113468,0.040164,0
36.203,0.324826,6.581459,2.939583,0.253051,0.185856,-0.269544,0
36.222,1.004985,7.058827,6.267401,-0.337961,-0.034361,-0.109192,0
36.241,3.035295,6.786643,10.358529,-0.30696,-0.153174,-0.098349,0
36.263,1.874178,6.21416,6.104689,-0.036652,-0.066279,-0.239764,0
36.284,0.43011,7.255038,6.403193,-0.06017,-0.044135,-0.220217,0
36.302,0.567697,7.078568,6.477969,-0.06017,-0.039706,-0.129503,0
36.324,0.532403,8.146963,6.470791,-0.005956,-0.005345,-0.108887,0
36.343,1.636691,6.52104,8.975478,-0.085216,-0.054672,0.023824,0
36.363,-0.550947,6.608378,3.685545,0.098655,0.021533,-0.01405,0
36.385,0.799801,7.356135,9.127422,0.000153,0.00504,0.09728,0
36.404,1.118046,6.956533,5.630311,-0.024282,0.041997,0.15745,0
36.426,1.537987,7.802995,6.590432,-0.179594,-0.010843,0.261297,0
36.447,2.141576,6.98764,9.512667,-0.159588,0.0759,0.290008,0
36.466,0.71665,7.657032,4.831707,0.227242,0.156992,0.219148,0
36.488,1.39023,5.651847,5.182256,-0.016493,0.358425,0.334448,0
36.506,2.386242,6.783054,8.556135,0.048716,0.20296,0.372475,0
36.527,1.847857,7.380661,5.222934,0.008399,0.250455,0.35308,0
36.549,3.42712,5.867201,8.657232,-0.19624,0.108581,0.422871,0
36.568,0.576072,6.472585,4.765306,0.174249,0.444862,0.103389,0
36.586,2.072184,6.315856,5.912066,0.017104,0.240986,0.197615,0
36.611,2.191227,7.159325,9.973285,-0.14279,0.145539,0.138208,0
36.627,1.760519,6.288338,3.035295,0.053451,0.219606,0.010996,0
36.649,2.924029,7.415358,8.578269,-0.145844,0.128282,-0.054825,0
36.668,2.306083,6.406184,6.633502,-0.135459,0.120646,-0.124922,0
36.691,3.058027,6.396015,6.701698,0.016493,0.127823,-0.26817,0
36.711,2.221736,6.716055,6.725626,-0.189368,0.022144,-0.368046,0
36.729,2.948556,6.041279,7.587641,-0.249233,-0.078649,-0.426536,0
36.752,2.714657,5.860621,7.853842,-0.234878,-0.094684,-0.586583,0
36.771,2.605784,6.311668,9.022138,-0.168599,-0.135917,-0.662177,0
36.791,0.995414,7.049854,2.965904,-0.102931,-0.238543,-0.752585,0
36.811,2.616552,8.215756,10.492527,-0.526107,-0.488234,-0.742964,0
36.834,3.662813,6.213562,9.668798,-0.431729,-0.43066,-0.749531,0
36.852,-0.260818,6.611369,4.636094,0.104916,-0.172722,-1.091768,0
36.871,1.359123,6.393024,8.579466,-0.133627,-0.3795,-0.995557,0
36.894,-0.427717,7.447062,3.905685,0.010843,-0.330325,-0.993113,0
36.912,-0.10349,6.177072,6.7011,-0.171195,-0.470366,-0.918435,0
36.935,-0.29013,6.250651,5.185246,-0.153327,-0.491593,-0.856432,0
36.953,1.942374,6.598807,10.826924,-0.319177,-0.514806,-0.700509,0
36.975,0.187238,7.91785,7.792825,-0.099418,-0.433561,-0.587346,0
36.995,-0.779462,6.699903,7.750352,0.082467,-0.312915,-0.665079,0
37.016,0.77348,5.913263,11.097313,0.058643,-0.364075,-0.476475,0
37.037,-1.639682,7.365108,6.823134,0.114843,-0.257632,-0.265879,0
37.055,-2.544169,6.99123,2.938386,0.38683,-0.198684,-0.181121,0
37.077,-1.678565,7.874779,9.454042,-0.045509,-0.090713,0.204029,0
37.096,-3.111866,7.001997,5.352146,0.202044,0.030391,0.518166,0
37.115,-0.906282,5.130212,8.149954,0.195935,0.197309,0.755945,0
37.138,-1.331008,8.359924,7.42433,0.478918,0.343001,0.976162,0
37.156,1.202992,5.64766,7.02772,0.562454,0.396909,1.091921,0
37.179,0.905085,6.579066,6.696912,0.337808,0.418748,1.247233,0
37.198,1.141376,7.183852,5.257031,0.311388,0.506101,1.289841,0
37.217,0.728615,7.124629,4.478168,0.540157,0.633619,1.079551,0
37.239,2.761317,5.767301,10.194023,0.010385,0.399353,1.104749,0
37.26,2.199602,6.986444,5.687739,0.339183,0.587346,0.994335,0
37.279,2.705684,6.698109,4.853242,0.230907,0.490677,0.790306,0
37.3,3.056831,6.516254,10.136595,-0.079107,0.330325,0.463188,0
37.32,3.081357,7.17787,3.354139,0.384234,0.562912,-0.086743,0
37.342,1.841875,6.242874,5.529215,-0.218537,-0.03146,0.018326,0
37.36,2.746362,7.545766,8.559725,-0.653473,-0.321009,-0.057879,0
37.382,0.926022,6.033502,7.357331,-0.228005,-0.037568,-0.386067,0
37.403,3.299104,5.968896,7.599605,-0.189215,-0.145844,-0.43631,0
37.421,2.275574,5.924031,8.233105,-0.221897,-0.129198,-0.59544,0
37.443,1.954936,6.390631,7.030113,-0.003512,-0.203571,-0.603382,0
37.462,-0.322433,7.152147,6.280561,-0.229991,-0.311388,-0.608574,0
37.482,-1.133002,8.783454,6.056234,-0.12538,-0.280845,-0.568562,0
37.504,0.702892,6.810572,7.171289,-0.11805,-0.277027,-0.396451,0
37.522,0.748355,7.995617,4.150949,-0.055436,-0.203876,-0.318413,0
37.546,0.678365,8.168498,9.153743,-0.025351,-0.151189,-0.159436,0
37.563,0.265603,6.062814,7.476973,-0.158061,-0.158978,-0.076816,0
37.586,0.89013,6.371489,7.735996,-0.094379,-0.045662,0.054062,0
37.603,0.131605,7.162915,8.195417,0.018021,0.014355,0.184481,0
37.626,0.371486,6.520442,5.77089,0.058948,0.121104,0.345444,0
37.644,-0.979263,7.49133,5.585446,0.286037,0.234419,0.350331,0
37.667,0.984646,6.319445,7.905886,0.039401,0.195019,0.551916,0
37.687,0.701097,6.166304,8.061419,0.189674,0.301614,0.583376,0
37.705,0.659223,6.876374,6.844071,0.216093,0.325896,0.601549,0
37.728,0.783649,6.089136,6.179464,0.174249,0.331547,0.578031,0
37.747,2.248655,5.852246,8.499905,0.098655,0.274736,0.602618,0
37.767,0.640678,7.944171,5.321039,0.195171,0.308029,0.463341,0
37.787,3.195615,6.141778,8.668598,0.054978,0.201433,0.479223,0
37.81,1.910669,6.629315,2.91386,0.169057,0.364686,0.23839,0
37.828,2.732005,6.856035,9.968499,0.010385,0.24175,0.175013,0
37.85,1.951945,5.983253,6.432506,-0.023671,0.11805,0.018937,0
37.869,1.951945,6.94098,5.19422,-0.087506,-0.003971,-0.010843,0
37.891,2.938386,6.987042,9.311071,-0.189521,-0.099418,-0.197767,0
37.91,1.855036,6.516254,5.904888,0.038637,-0.000305,-0.318108,0
37.929,1.77368,7.146165,5.025526,0.032529,-0.044593,-0.450971,0
37.951,1.494318,7.17787,8.952147,-0.22434,-0.199295,-0.427453,0
37.97,-0.230907,6.931409,2.627319,-0.026267,-0.15745,-0.472657,0
37.992,3.574877,6.928418,11.078171,-0.598189,-0.435394,-0.277943,0
38.013,0.339183,6.272186,4.472186,-0.049022,-0.12874,-0.566119,0
38.032,1.620539,6.803393,8.63809,-0.144775,-0.182649,-0.363312,0
38.055,-0.426521,6.836294,4.581059,-0.067806,-0.129045,-0.348804,0
38.075,0.926022,6.697511,7.246065,-0.221286,-0.158214,-0.26985,0
38.095,1.555933,7.141977,8.044071,-0.083536,-0.087201,-0.216704,0
38.115,2.681158,6.4678,11.732608,-0.175013,-0.13439,-0.20128,0
38.134,0.256032,6.198009,2.184049,0.396909,-0.03879,-0.429591,0
38.156,-0.573081,7.624729,7.281359,-0.256716,-0.370337,-0.204792,0
38.175,1.53679,7.523633,7.406384,-0.110872,-0.112094,-0.016341,0
