Timestamp,AccX,AccY,AccZ,GyroX,GyroY,GyroZ,Label
0.028,-0.920639,8.670991,5.809175,0.033445,-0.054367,-0.014661,0
0.042,-1.555335,8.769096,3.937988,0.016951,-0.064599,-0.027642,0
0.060,-0.972084,8.140981,4.962116,-0.010232,-0.074220,-0.026420,0
0.083,-0.690928,8.233703,3.731009,0.043066,-0.071777,-0.028405,0
0.103,-0.589233,8.912666,6.193821,-0.027794,-0.075747,-0.032681,0
0.122,-1.333999,9.349955,2.964707,0.028252,-0.053451,-0.037110,0
0.143,-0.533001,8.047661,5.275576,-0.009010,-0.065363,-0.025504,0
0.164,-1.727618,8.984451,3.784847,0.093004,-0.022907,-0.036499,0
0.183,-0.817747,8.938987,2.168495,-0.169057,-0.090561,0.002902,0
0.205,-0.588634,8.251051,5.452645,-0.029627,-0.025656,0.011759,0
0.226,-0.899103,8.545368,6.977471,0.225715,0.072693,0.013897,0
0.244,-1.088734,8.724830,3.414558,0.140957,0.045662,0.014966,0
0.265,-0.559920,8.492725,5.084150,-0.078649,-0.041233,-0.011454,0
0.284,-0.457627,8.240283,1.227518,0.061850,-0.000916,-0.010232,0
0.305,-0.595215,9.257831,4.695914,-0.010996,0.031765,0.014203,0
0.324,-1.105484,8.535796,3.789633,0.059101,0.119424,0.033139,0
0.349,0.320638,8.088937,5.371289,-0.019395,0.117744,0.047800,0
0.364,0.080160,9.004789,6.256633,-0.098502,0.061850,0.005040,0
0.390,-0.915853,8.116454,3.154937,0.012981,0.020617,-0.114843,0
0.409,0.065204,8.569296,5.988039,-0.149967,-0.021991,-0.100640,0
0.429,-0.134596,8.319844,4.225127,0.048258,-0.063225,-0.228158,0
0.449,-0.389432,8.475378,5.118846,-0.005192,-0.255494,-0.402713,0
0.469,-0.399601,8.127222,5.692525,0.002596,-0.302225,-0.454331,0
0.489,-0.980459,8.333005,3.999603,0.020311,-0.335976,-0.488845,0
0.512,-1.094716,7.430313,2.764308,0.077885,-0.386983,-0.497549,0
0.530,-1.178465,9.481560,7.056434,0.197004,-0.349567,-0.504880,0
0.551,-1.584049,7.963912,4.168895,-0.046578,-0.393550,-0.452651,0
0.569,-0.410369,9.616755,6.723233,0.049938,-0.362854,-0.423177,0
0.591,-1.731805,8.595019,2.626721,0.207999,-0.380721,-0.507323,0
0.610,-0.531805,8.641679,4.657031,-0.038179,-0.444099,-0.454789,0
0.632,-1.246661,8.653643,5.965905,0.014050,-0.419053,-0.430507,0
0.653,-1.782055,7.741379,5.815157,0.014203,-0.452193,-0.425773,0
0.672,-1.301097,8.630911,3.883551,0.083688,-0.514043,-0.468381,0
0.691,-1.104288,8.338388,3.878167,0.133474,-0.554360,-0.508087,0
0.713,-1.181456,8.047063,5.126623,0.109345,-0.609338,-0.505185,0
0.736,-1.504487,9.006584,4.133601,-0.040623,-0.671188,-0.511141,0
0.753,-1.088136,8.609974,5.422734,0.036499,-0.635452,-0.468686,0
0.776,-1.340579,8.178668,4.735994,0.082925,-0.664621,-0.487623,0
0.794,-0.495912,8.817552,4.866403,0.122784,-0.660498,-0.448222,0
0.813,-1.421935,8.358130,4.184449,0.124158,-0.666912,-0.456316,0
0.836,-1.810170,9.104092,5.417350,0.032070,-0.641561,-0.348956,0
0.855,-2.229512,8.790632,6.576673,0.143095,-0.542448,-0.266948,0
0.876,-2.520839,8.921041,3.137589,0.188757,-0.525344,-0.210290,0
0.897,-1.600798,8.739784,5.230112,0.224646,-0.411112,-0.100640,0
0.916,-2.505285,7.975278,2.784647,0.152105,-0.365755,0.001374,0
0.937,-1.661815,8.601001,5.623732,0.044440,-0.271529,0.163254,0
0.956,-2.684747,8.697910,3.480361,0.205556,-0.168293,0.199600,0
0.977,-2.586641,7.132406,3.111866,0.233350,-0.103083,0.286954,0
1.000,-0.510868,7.233503,-2.320440,0.357967,-0.074220,0.422260,0
1.018,-2.554936,12.020345,22.929821,-0.802829,-0.101404,0.530078,0
1.040,-1.560719,6.693922,-6.363712,1.110858,0.023671,0.583376,0
1.061,-1.656431,9.336794,5.591428,-0.759458,0.171348,0.578642,0
1.080,-2.790629,7.818548,3.641278,-0.654083,0.224798,0.602465,0
1.101,-1.822733,8.819944,5.237290,-0.036652,0.255494,0.667828,0
1.120,-1.723431,8.860622,3.988237,0.137597,0.391106,0.728914,0
1.141,-1.614557,7.887940,4.232305,-0.008705,0.431118,0.763428,0
1.163,-0.528216,8.519645,8.105088,0.108123,0.482583,0.773966,0
1.181,-1.465006,7.063014,0.815354,0.225562,0.540463,0.710588,0
1.203,-0.098106,7.606783,6.753144,-0.074984,0.468075,0.720057,0
1.225,-0.973281,8.375478,3.413362,0.018326,0.490524,0.659123,0
1.244,-0.022732,8.213962,5.184649,-0.107970,0.450818,0.606436,0
1.265,0.312862,8.072785,5.202595,-0.199142,0.390648,0.551305,0
1.284,-0.133998,7.658827,5.003990,0.012370,0.343611,0.372169,0
1.305,0.251246,7.876574,6.456434,-0.026878,0.239612,0.269850,0
1.324,-0.248255,8.557930,4.254439,0.017104,0.141568,0.141262,0
1.349,-0.771685,8.562118,3.082554,-0.096211,0.037415,0.038026,0
1.368,0.140578,8.593225,7.247262,0.008552,-0.045204,-0.062919,0
1.389,-0.773480,8.024331,4.618148,-0.021991,-0.082772,-0.090408,0
1.409,-0.599402,8.247461,5.050052,-0.052840,-0.135765,-0.068417,0
1.429,-0.372682,8.492127,3.867998,0.065515,-0.113621,-0.097738,0
1.448,-1.016950,8.349156,4.152145,0.035430,-0.122631,-0.099266,0
1.470,-0.297308,7.735397,7.063612,0.063072,-0.097586,-0.054825,0
1.489,-0.808774,8.319844,1.655833,-0.064904,-0.105985,-0.005498,0
1.510,-2.285744,12.954741,2.585445,0.138819,-0.026573,0.007483,0
1.530,-1.721636,7.695916,6.790233,0.211359,0.090866,0.138819,0
1.550,-1.863411,7.899904,3.914658,-0.221133,0.123853,0.327424,0
1.569,-1.663610,9.469596,2.179263,0.201585,0.266490,0.351095,0
1.590,-2.120639,8.230712,5.368298,-0.309098,0.218384,0.416763,0
1.609,-1.319044,8.068000,5.131408,-0.202349,0.345291,0.540157,0
1.630,-0.598804,8.523832,6.584450,0.141721,0.450207,0.555734,0
1.653,-0.921237,8.499306,-0.503689,-0.253662,0.411417,0.574518,0
1.672,-0.607179,8.480762,5.291129,0.044746,0.558025,0.590401,0
1.691,-0.792024,8.292327,6.282356,-0.134085,0.526107,0.583834,0
1.714,-0.679562,7.963314,4.755735,-0.094379,0.570853,0.594066,0
1.733,-0.036491,8.293523,4.858626,-0.047647,0.615141,0.568868,0
1.755,-0.697508,8.670393,4.843671,-0.070708,0.614530,0.535270,0
1.773,-0.546162,8.684750,4.676174,-0.045662,0.613461,0.509614,0
1.794,-0.437887,8.192427,5.072186,-0.005803,0.620180,0.474184,0
1.813,-0.111864,7.612167,6.569495,-0.061545,0.583376,0.428674,0
1.835,0.077169,7.737790,0.750748,0.039401,0.597578,0.363006,0
1.857,0.670589,8.930014,8.415557,-0.224493,0.544128,0.328493,0
1.873,-0.040678,8.443673,2.734996,0.032834,0.557261,0.242513,0
1.895,0.257827,8.156534,6.178866,-0.155923,0.472046,0.183107,0
1.916,0.474377,7.905886,3.145365,0.038943,0.466090,0.101404,0
1.934,0.014357,8.249256,5.833103,-0.144164,0.401796,0.044899,0
1.958,-0.290728,8.912068,3.105286,0.028405,0.447306,0.032681,0
1.975,0.108873,7.782057,6.449853,-0.064904,0.401796,0.012370,0
1.997,0.121436,7.287940,2.892923,-0.073151,0.346513,-0.096517,0
2.017,0.275175,9.657433,7.770093,-0.099724,0.271988,-0.173638,0
2.038,-0.366700,8.280961,2.145764,0.025504,0.217926,-0.248622,0
2.056,-0.239282,7.408777,8.286943,-0.071013,0.103694,-0.319177,0
2.079,-0.588634,8.764910,3.767499,-0.014661,0.002443,-0.443335,0
2.098,-0.117847,7.454241,4.036094,-0.083536,-0.081550,-0.462883,0
2.120,0.710668,9.118449,3.862614,-0.001222,-0.123547,-0.537103,0
2.139,0.144766,8.609376,6.568298,-0.036346,-0.190132,-0.593761,0
2.157,0.473181,7.391429,2.428117,0.083230,-0.218690,-0.633925,0
2.181,0.869791,9.529416,8.301300,0.062461,-0.234572,-0.648280,0
2.199,0.151944,8.470592,2.556133,0.140957,-0.243582,-0.682489,0
2.221,-0.133998,7.351948,5.301897,-0.027947,-0.303600,-0.681572,0
2.240,0.679562,8.699107,3.685545,0.042608,-0.319482,-0.699440,0
2.262,0.031107,9.121440,5.713462,0.068111,-0.335517,-0.730747,0
2.280,-0.215952,7.875976,4.908278,0.032987,-0.388357,-0.736856,0
2.302,-1.072583,8.476574,5.810371,0.002291,-0.443488,-0.793666,0
2.321,-0.345763,8.426923,7.297511,0.088575,-0.449444,-0.777936,0
2.343,-1.156930,8.203195,2.391626,0.139888,-0.484874,-0.776867,0
2.362,-1.393819,9.071789,6.053243,-0.002138,-0.525496,-0.760221,0
2.381,-1.260419,8.368299,5.187640,0.023213,-0.526565,-0.726776,0
2.403,-0.718445,7.721639,6.842875,-0.023824,-0.589943,-0.690125,0
2.422,-1.287937,8.763115,2.088934,0.163864,-0.543059,-0.681878,0
2.442,-1.460818,8.891729,5.747560,0.085521,-0.567188,-0.658360,0
2.464,-1.253241,9.053843,3.290729,0.087659,-0.525955,-0.570090,0
2.483,-0.859622,9.142377,7.110871,-0.017410,-0.485485,-0.459218,0
2.509,-1.616950,8.413763,4.744967,0.061697,-0.443946,-0.425009,0
2.524,-1.304687,8.261818,7.362117,0.023060,-0.419511,-0.379347,0
2.547,-1.892723,7.954939,2.969493,0.142942,-0.351095,-0.290619,0
2.565,-1.708475,8.797213,5.380262,0.043066,-0.370184,-0.261908,0
2.589,-1.550549,8.309675,5.851049,-0.019700,-0.376293,-0.211054,0
2.606,-2.024328,7.689335,4.500899,0.040775,-0.351400,-0.213192,0
2.629,-1.247259,8.408977,6.059225,0.021380,-0.347124,-0.180663,0
2.648,-1.556531,7.166504,4.378267,0.111483,-0.307418,-0.142179,0
2.669,-1.699502,8.334800,6.086144,0.044746,-0.337350,-0.143248,0
2.689,-1.286142,9.648459,4.249055,0.075900,-0.335212,-0.105221,0
2.712,-0.959522,7.847262,5.769095,0.093615,-0.317802,-0.120951,0
2.729,-0.812962,9.014361,3.252444,0.223118,-0.275347,-0.102014,0
2.751,-1.255634,8.536993,5.685945,0.130725,-0.281151,-0.088117,0
2.770,-1.686342,8.307880,4.215555,0.138208,-0.239001,-0.065210,0
2.789,-0.746561,8.322237,4.844269,0.107054,-0.242819,-0.009163,0
2.815,-1.973480,8.315059,4.198805,0.020617,-0.233961,0.006261,0
2.830,-1.505684,8.719446,6.449853,0.109956,-0.209832,0.019700,0
2.851,-1.703092,7.394420,4.989634,0.009621,-0.219148,0.056047,0
2.873,-1.768894,8.852247,4.156931,0.115912,-0.165239,0.080176,0
2.891,-1.704886,8.151749,4.632504,0.056658,-0.156076,0.122784,0
2.914,-1.751546,8.638688,4.040879,0.080023,-0.061697,0.215024,0
2.932,-1.782055,9.069396,6.595217,-0.087354,-0.053451,0.240833,0
2.954,-1.442872,7.384849,2.900101,0.061697,0.005040,0.262519,0
2.976,-0.948156,8.548957,7.649256,0.005803,0.042608,0.318261,0
2.994,-1.193420,7.138388,1.265803,-0.010385,0.043219,0.310625,0
3.015,-0.848256,8.749356,6.659225,0.039401,0.077427,0.262672,0
3.035,-1.385444,8.396415,3.214159,0.025198,0.050091,0.242208,0
3.054,-0.714856,8.024331,8.129615,-0.058185,-0.004429,0.221286,0
3.073,-1.292722,8.420941,4.802993,0.115912,0.018479,0.163864,0
3.095,-0.796810,7.498508,4.103691,-0.002902,-0.071929,0.121868,0
3.115,-0.180060,8.053044,7.313663,-0.122173,-0.106749,0.099724,0
3.137,-0.893121,8.206783,4.368696,-0.002749,-0.110414,0.058490,0
3.155,-0.960120,9.077172,6.065805,0.040623,-0.094531,0.060781,0
3.177,-0.463011,7.405188,3.864408,0.056200,-0.086590,0.063377,0
3.196,-0.349352,8.419744,6.336792,0.014661,-0.053451,0.089186,0
3.218,-1.200599,7.904690,3.650251,-0.015119,-0.065821,0.079107,0
3.236,-0.815354,8.751151,4.499703,0.022755,-0.040775,0.091019,0
3.258,-1.443470,9.537193,5.988039,-0.019853,-0.049327,0.086590,0
3.278,-1.096511,8.058429,4.614559,0.049938,-0.022144,0.107665,0
3.297,-1.734796,8.068598,6.619744,-0.125685,-0.044746,0.127976,0
3.319,-1.458425,8.295917,3.917051,-0.013439,0.003360,0.188452,0
3.337,-2.078765,13.248461,18.948164,-0.238390,0.023518,0.201585,0
3.359,-1.534996,10.795817,17.385651,0.638048,0.257785,0.275653,0
3.378,-1.098306,8.005786,-1.387837,0.853836,0.199447,0.250302,0
3.400,-1.225723,7.661818,-0.345763,0.578031,0.291688,0.397673,0
3.422,-2.224129,7.879565,2.111068,-0.022755,0.324064,0.472198,0
3.441,-1.875375,6.034698,2.587838,0.990059,0.483499,0.520762,0
3.460,-3.232703,9.290732,1.936990,-0.098044,0.347887,0.489914,0
3.482,-2.132005,6.774081,8.288139,-0.063835,0.229991,0.444099,0
3.501,-0.751346,3.133999,-3.916452,1.076344,0.207236,0.326049,0
3.520,-1.155135,11.458032,17.285152,-1.346499,0.000305,0.313679,0
3.543,0.924228,6.317052,-4.991428,0.918893,0.108276,0.317497,0
3.561,0.597009,7.165905,2.579463,-0.349415,0.115912,0.225409,0
3.583,0.664008,10.112068,13.378271,-0.425162,0.158825,0.205556,0
3.602,1.176671,5.827121,-2.925226,0.079412,0.123853,0.169057,0
3.626,-0.413360,8.669196,1.499103,-0.187077,0.104152,0.083078,0
3.644,0.296710,8.974879,9.921241,0.142179,0.121868,0.123242,0
3.663,-0.710070,5.584250,-5.248058,0.974635,0.113315,0.069639,0
3.685,-2.100300,10.280763,6.274579,-0.849866,0.053145,0.053451,0
3.704,0.253041,8.318049,10.222138,-0.676227,0.062461,0.093920,0
3.728,-0.437288,5.442475,-2.741576,-0.017562,0.027642,0.006872,0
3.746,-1.389034,15.447465,0.297308,0.139430,0.057879,0.064904,0
3.764,-2.023132,12.331411,8.991630,-0.148135,0.049480,0.043371,0
3.786,0.185444,2.600998,3.783651,-1.248150,-0.105069,0.142179,0
3.805,-0.701097,9.063414,13.720445,-0.665537,0.071777,0.112705,0
3.830,2.130210,5.337789,0.049651,-0.223118,0.211359,0.244957,0
3.847,-0.619741,6.657431,6.652047,-0.705091,0.180816,0.210748,0
3.869,-3.966702,8.687741,5.850451,-0.226325,0.285121,0.183412,0
3.887,-1.657628,1.185045,6.357131,-0.197767,0.233656,0.220064,0
3.909,-0.489930,7.999804,-1.507478,-0.568257,0.087201,0.213497,0
3.929,0.031705,9.226724,8.278568,-0.535118,0.222660,0.265573,0
3.950,0.903291,4.943572,4.092325,-0.064904,0.381790,0.320399,0
3.969,-0.937388,9.577272,3.932604,-0.457690,0.281151,0.248622,0
3.991,-0.218345,8.462815,4.370491,-0.835358,0.189674,0.254731,0
4.009,-0.189033,10.497313,17.148163,-0.458454,0.290161,0.244499,0
4.029,1.359721,10.168300,4.229912,-0.436157,0.326049,0.206625,0
4.050,2.267798,7.713264,10.356734,0.126907,0.285732,0.169668,0
4.071,-0.287737,8.361719,5.470591,-0.664621,0.180969,0.010843,0
4.089,-1.013959,10.066605,4.296911,-0.079871,0.197462,-0.016493,0
4.116,-1.207777,7.380063,5.783453,-0.075442,0.156229,-0.122784,0
4.130,0.159721,6.772884,7.041479,0.041997,0.106596,-0.160505,0
4.153,0.347557,7.414759,4.170690,0.078954,0.092393,-0.198531,0
4.172,0.454636,6.632306,7.000801,0.082314,0.039401,-0.248469,0
4.194,-0.175872,6.664609,4.424927,0.131489,0.021991,-0.293521,0
4.213,0.513859,11.149357,6.150751,0.159436,-0.005192,-0.333990,0
4.235,1.107279,6.944570,3.690331,0.179442,0.002443,-0.346818,0
4.253,0.538385,7.144969,5.878567,0.153022,-0.001069,-0.356898,0
4.276,-0.450449,9.274581,5.469394,0.147218,0.003665,-0.356745,0
4.296,-0.242273,5.416752,7.234699,0.310319,0.032223,-0.356745,0
4.314,-0.375673,8.768498,4.663013,0.426689,0.011759,-0.394313,0
4.333,-0.785444,8.210971,5.514858,0.486248,-0.035430,-0.456774,0
4.356,-0.222533,5.371289,5.888138,0.316733,-0.132252,-0.492968,0
4.375,-1.396212,8.688937,3.370291,0.475711,-0.218231,-0.545044,0
4.397,0.519243,9.685548,2.855236,0.350636,-0.358425,-0.644004,0
4.416,-1.415953,9.430114,4.005585,0.299324,-0.386830,-0.687223,0
4.438,-1.354936,14.854045,-2.492125,0.517250,-0.427300,-0.638201,0
4.456,-1.846063,8.059625,8.513663,0.151189,-0.473726,-0.679587,0
4.479,-1.162912,10.248460,8.093722,-0.321009,-0.485179,-0.525191,0
4.498,-3.508476,7.593024,4.009174,0.408516,-0.335212,-0.524275,0
4.519,-1.183251,8.084749,7.570292,0.083688,-0.429743,-0.381943,0
4.540,-0.788435,9.156734,4.581059,0.066890,-0.391259,-0.337503,0
4.559,-1.385444,7.372287,3.668795,0.085521,-0.320246,-0.256716,0
4.582,-0.966102,8.045268,6.495317,-0.040164,-0.301004,-0.182190,0
4.600,-1.154537,8.690134,5.406583,0.069028,-0.219453,-0.124464,0
4.621,-1.643271,8.117053,1.632503,0.113010,-0.157603,-0.087354,0
4.640,-0.766900,9.731011,8.306086,0.025351,-0.166919,-0.031612,0
4.662,-1.890330,8.111669,2.338386,0.083383,-0.120188,-0.008399,0
4.681,-1.502094,8.427522,5.345566,0.075900,-0.122937,0.016951,0
4.700,-1.694717,8.502895,2.008775,0.218995,-0.079871,-0.003665,0
4.722,-1.284946,8.968898,5.475975,-0.095448,-0.170126,0.005040,0
4.741,-1.409971,9.410972,3.495316,0.233656,-0.065210,0.031918,0
4.763,-1.253839,7.892725,7.992028,-0.115148,-0.126754,0.078038,0
4.782,-1.125225,8.257631,4.035495,0.014050,-0.068722,0.087659,0
4.804,-0.442074,8.115258,5.869594,-0.108887,-0.066737,0.119729,0
4.823,-1.418944,8.931808,4.039084,0.052840,-0.011912,0.116064,0
4.845,-1.706681,7.925029,5.986842,0.084910,0.036499,0.135154,0
4.864,-1.066002,8.280961,4.633103,-0.006567,-0.001069,0.156534,0
4.886,-1.700101,8.861220,3.970889,0.038026,0.028252,0.142942,0
4.908,-1.341775,7.795816,5.352744,0.026878,0.026114,0.158672,0
4.931,-1.253241,7.582855,6.042475,0.010079,-0.008705,0.129656,0
4.949,-1.244866,8.306684,5.267201,0.061239,-0.019090,0.100793,0
4.966,-1.329811,9.013762,4.978866,0.078954,-0.040470,0.064141,0
4.985,-0.959522,8.241479,4.213761,-0.033903,-0.095142,0.059712,0
5.009,-0.818345,8.450253,5.900103,0.078954,-0.092851,0.035888,0
5.026,-0.870987,7.971689,5.591428,0.078343,-0.102320,0.019700,0
5.049,-0.697508,9.125628,3.217150,0.034514,-0.138972,0.021686,0
5.068,-0.981655,8.598010,5.971289,-0.011912,-0.159436,-0.004734,0
5.089,-1.013959,8.668598,2.890530,0.082925,-0.117439,0.012370,0
5.110,-1.198206,8.327621,5.845068,0.057269,-0.130572,0.027031,0
5.130,-1.656431,8.423932,3.398406,0.120188,-0.109498,0.029474,0
5.149,-2.100898,8.430512,4.312465,-0.007330,-0.128282,0.063683,0
5.172,-1.078565,9.372686,4.284947,0.072846,-0.057269,0.158978,0
5.191,-1.663610,8.720642,5.520840,-0.056505,-0.008247,0.230754,0
5.210,-1.446461,8.023732,4.267599,0.107359,0.087965,0.285427,0
5.233,-1.420738,9.482756,7.441679,-0.046578,0.074831,0.318719,0
5.251,-0.830908,7.189236,-1.671985,0.199447,0.180663,0.344375,0
5.271,-1.822733,9.533006,9.604192,-0.117897,0.182038,0.363770,0
5.290,-1.167697,8.392227,3.369094,0.206778,0.313374,0.442113,0
5.314,-0.820738,8.833703,5.660222,0.009316,0.263435,0.389884,0
5.335,-1.207179,8.632706,4.154538,-0.008705,0.245415,0.355371,0
5.353,-1.205384,7.916056,3.119642,0.028252,0.262977,0.361937,0
5.372,-1.368695,8.984451,5.815755,-0.057574,0.242971,0.348040,0
5.396,-1.429113,8.434700,3.008376,-0.117286,0.206167,0.328493,0
5.413,-0.844068,8.709874,6.199803,0.013439,0.196698,0.260381,0
5.435,-0.753141,7.859226,2.611168,0.023213,0.171195,0.235336,0
5.454,-0.650250,8.691928,5.167899,0.033445,0.160352,0.201585,0
5.476,-0.793819,8.667402,4.762315,-0.067042,0.120188,0.190743,0
5.497,-0.440878,8.898309,5.690132,-0.059865,0.089950,0.144317,0
5.516,-0.723231,8.575876,6.065805,0.081550,0.098197,0.116064,0
5.536,-0.009571,7.855637,3.755535,0.013439,0.055283,0.075289,0
5.555,-0.195613,8.840283,4.476971,0.096822,0.100945,0.108429,0
5.577,-0.607179,8.663813,2.572883,0.045204,0.098044,0.096517,0
5.596,-0.220738,8.812766,5.826523,0.011301,0.115148,0.124616,0
5.618,-0.281157,8.742776,4.766503,0.061086,0.123853,0.095295,0
5.637,0.004786,7.650452,3.805784,0.031001,0.139277,0.099418,0
5.659,-0.463011,9.430114,6.756733,-0.020159,0.163101,0.126754,0
5.678,-0.291326,8.394620,2.483750,-0.068722,0.192270,0.163864,0
5.697,-0.943370,8.359326,6.791429,-0.121409,0.235641,0.198531,0
5.719,-0.955933,8.002197,3.993023,0.091019,0.308639,0.219911,0
5.738,-0.994218,8.485547,6.144170,0.013439,0.298407,0.209068,0
5.760,-0.839881,7.482955,1.792224,0.018173,0.298866,0.209985,0
5.779,-0.945165,9.236296,7.865806,-0.153785,0.263741,0.202960,0
5.801,-0.631107,7.411768,3.206382,-0.036499,0.274736,0.185397,0
5.820,-0.458226,8.660223,6.711269,-0.022449,0.262977,0.131794,0
5.845,-0.342772,8.452047,1.749153,0.019853,0.250760,0.114537,0
5.860,-0.486939,8.760123,4.396811,-0.039095,0.232129,0.078649,0
5.883,-0.071785,8.681161,2.740380,-0.001069,0.231823,0.074984,0
5.902,-0.183649,9.463614,13.804193,-0.487012,0.133474,0.049480,0
5.920,0.737588,7.279565,0.049053,0.048564,0.198684,0.003054,0
5.945,-0.876371,7.668398,6.299106,-0.104305,0.129961,-0.100335,0
5.964,0.425922,8.772686,2.549552,0.151800,0.146455,-0.108123,0
5.984,-1.233500,8.921041,6.966105,-0.046273,0.069944,-0.173486,0
6.002,-0.233898,7.938189,3.504289,0.005040,0.016799,-0.190284,0
6.024,-0.842274,8.111071,6.634699,-0.132405,-0.078191,-0.250913,0
6.049,-1.093520,8.022536,3.769294,0.142484,-0.016188,-0.251065,0
6.063,-0.611366,8.934800,4.993821,-0.094379,-0.080176,-0.216093,0
6.085,-0.897308,8.708678,4.599603,-0.006720,-0.042150,-0.193644,0
6.104,-1.304088,8.873184,6.051448,-0.035736,-0.034361,-0.160505,0
6.125,-0.897907,8.352147,2.691327,0.083230,-0.007789,-0.136986,0
6.150,-0.435494,8.351549,6.644868,-0.056505,-0.027336,-0.118660,0
6.166,-1.064208,8.536395,2.703291,0.012217,0.018173,-0.075442,0
6.189,-0.707079,8.900104,6.513862,-0.075747,0.010996,-0.062919,0
6.209,-0.499502,8.317451,3.294319,0.011301,0.064446,-0.012217,0
6.228,-0.635893,7.658827,4.886144,-0.038943,0.040775,-0.056963,0
6.250,0.218943,8.383852,7.762915,-0.061545,0.049938,-0.029474,0
6.268,-1.437488,10.001999,-0.884746,0.093462,0.085979,-0.066126,0
6.288,-0.334995,7.406384,7.883154,-0.117591,0.069180,-0.026725,0
6.309,-0.101695,8.237890,4.329215,-0.035277,0.086285,-0.018479,0
6.330,-0.780658,8.540583,5.109274,-0.023518,0.069791,-0.072540,0
6.349,-0.248854,7.769495,3.888337,0.062308,0.104916,-0.039248,0
6.369,-0.802792,9.303294,6.522236,0.000764,0.096517,-0.078496,0
6.389,-0.332004,8.024929,2.702095,-0.063530,0.087965,-0.056963,0
6.411,-0.653839,9.181859,10.244272,-0.166461,0.053145,-0.072846,0
6.430,-1.183849,7.248458,0.882952,0.092393,0.106443,-0.094989,0
6.453,-0.778864,8.267800,7.477571,0.058643,0.045815,-0.126449,0
6.474,-0.879961,8.943773,2.056033,-0.093920,-0.041233,-0.187841,0
6.492,-1.323829,7.296913,6.033502,-0.098655,-0.072846,-0.197309,0
6.511,-0.498904,8.520244,4.297510,-0.012828,-0.072082,-0.220980,0
6.534,-0.787837,8.006983,5.642874,-0.067959,-0.162948,-0.270155,0
6.554,-0.990030,8.022536,5.760122,0.040470,-0.153632,-0.280540,0
6.573,-0.651446,8.624331,7.423134,-0.125685,-0.215483,-0.282830,0
6.595,-1.070788,8.901300,2.642873,0.025198,-0.181274,-0.272904,0
6.613,-1.322633,8.565108,5.732605,-0.073304,-0.219300,-0.255189,0
6.634,-1.478764,7.868797,4.180860,0.028558,-0.160963,-0.173333,0
6.656,-0.993021,8.817552,5.258228,0.025045,-0.134085,-0.131641,0
6.677,-1.764109,8.440681,4.661817,0.013592,-0.089339,-0.070402,0
6.697,-1.231705,7.901699,7.483553,-0.034056,-0.082619,-0.020617,0
6.716,-1.533799,8.810373,3.675974,0.109803,-0.052229,-0.031001,0
6.738,-1.360320,8.807981,5.660820,0.013439,-0.058338,-0.000916,0
6.757,-1.972882,8.170891,2.052444,0.182190,0.002749,0.009010,0
6.784,-0.985245,9.095717,6.689734,-0.097738,-0.042302,0.060628,0
6.796,-0.747159,7.929814,3.527021,0.009621,-0.000764,0.079260,0
6.818,-0.668196,8.391031,6.713662,0.020464,0.023976,0.080329,0
6.837,-1.037289,7.107282,3.917051,0.034361,0.044288,0.083841,0
6.858,-0.546760,9.058030,4.408776,0.107054,0.058338,0.074373,0
6.880,-1.051646,8.589635,5.474180,0.000764,0.029474,0.064446,0
6.898,-0.605982,7.884351,5.307879,0.125227,0.056352,0.049327,0
6.921,-0.339183,8.376076,4.785645,0.070249,0.020769,0.001680,0
6.941,-0.732802,9.500104,5.668597,0.032987,-0.011912,-0.017104,0
6.961,-0.940379,8.354540,3.953541,0.063225,-0.030391,-0.054978,0
6.980,-0.708874,7.618149,5.614160,-0.057727,-0.100335,-0.065210,0
7.002,-0.852443,8.152347,3.990032,0.000916,-0.114537,-0.110414,0
7.021,-0.902692,8.566305,6.745367,0.087506,-0.099113,-0.120799,0
7.041,-1.405783,7.907083,4.572086,0.010690,-0.138972,-0.114079,0
7.062,-0.574876,8.854640,4.267001,0.046426,-0.131489,-0.082009,0
7.084,-1.832304,8.654840,3.807579,0.115148,-0.097738,-0.089339,0
7.103,-0.999003,8.490333,6.403193,0.099113,-0.070555,-0.023366,0
7.124,-1.787439,7.832307,4.218546,-0.028711,-0.092088,-0.010843,0
7.144,-0.439681,7.728219,6.826723,-0.006872,-0.063683,0.038790,0
7.162,-1.841875,8.529217,4.033701,0.049480,-0.060017,0.011606,0
7.185,-1.284946,8.478369,5.502295,0.031154,-0.059101,0.052534,0
7.205,-1.391426,8.021339,6.804589,-0.060323,-0.085216,0.057574,0
7.224,-1.217349,7.919645,3.380460,0.064752,-0.054825,0.064904,0
7.248,-0.792623,9.421141,6.324829,-0.013286,-0.059101,0.102167,0
7.265,-1.702493,7.977073,-0.159123,0.116370,-0.010690,0.090255,0
7.288,-0.839881,8.040483,7.898707,-0.040012,-0.023518,0.138972,0
7.306,-0.574876,9.196814,5.110471,-0.016188,0.002291,0.145386,0
7.325,-0.269193,8.051848,4.843671,-0.023976,0.018937,0.156229,0
7.346,-0.714856,7.728219,6.449255,-0.032834,0.051313,0.170737,0
7.369,-0.724427,7.936395,5.309673,0.088270,0.112094,0.172569,0
7.386,-1.601995,9.126823,3.803990,0.062614,0.123089,0.164933,0
7.409,0.227318,8.481359,7.155138,-0.078038,0.099113,0.228158,0
7.428,-1.655833,7.876574,2.771487,0.065363,0.144317,0.165239,0
7.449,-1.006780,7.616354,6.461219,0.009010,0.162337,0.195629,0
7.468,-0.694517,9.087940,4.543970,0.116675,0.192117,0.223118,0
7.489,-0.943969,8.051250,5.059624,-0.069639,0.132558,0.174860,0
7.510,-0.506680,8.033304,4.101896,0.073304,0.176234,0.173333,0
7.529,-1.305883,8.843872,4.981258,-0.023518,0.135001,0.136986,0
7.549,-0.581456,8.233105,6.753742,-0.005345,0.142331,0.135001,0
7.571,-0.334995,8.026724,4.366901,0.040623,0.137139,0.122784,0
7.591,-0.497109,8.766704,4.540979,0.014355,0.124464,0.091782,0
7.613,-0.817149,9.140582,4.135396,-0.025198,0.119424,0.076816,0
7.631,-0.888335,7.663014,5.242076,-0.000153,0.106901,0.049938,0
7.650,-0.659821,7.151549,4.138985,-0.029016,0.079412,0.029322,0
7.674,-0.443869,9.148359,5.006981,0.004581,0.078038,0.030238,0
7.693,-1.461416,8.553742,6.153143,0.019853,0.075900,0.006261,0
7.714,-0.917647,7.840682,3.632305,-0.023671,0.063377,0.030391,0
7.734,-0.260219,8.106285,5.886942,-0.022144,0.034972,0.010537,0
7.753,-0.316451,9.515657,4.243671,0.020464,0.060323,-0.010996,0
7.775,-1.124627,8.158329,3.101098,-0.016493,0.068264,-0.003818,0
7.793,-0.321236,8.827721,7.791629,0.020769,0.097738,0.020311,0
7.816,-0.696910,8.218149,3.235694,0.011759,0.099571,0.013897,0
7.838,-0.056830,7.881360,4.903492,-0.001069,0.102625,-0.005803,0
7.856,-0.597009,8.374879,4.878367,-0.066126,0.090408,-0.014203,0
7.880,-0.262612,8.274381,4.951946,-0.024129,0.102167,-0.026420,0
7.897,-0.367896,8.542975,4.376472,0.024435,0.105374,-0.046884,0
7.918,-0.973281,8.671589,7.332207,-0.046731,0.078496,-0.063377,0
7.939,-0.728615,8.152945,5.871388,0.064752,0.086437,-0.065973,0
7.957,-0.832702,8.124231,5.825925,-0.028863,0.038943,-0.098349,0
7.979,-0.981655,8.148159,2.634498,-0.004123,0.018173,-0.119882,0
8.001,-1.229313,8.724830,7.362117,-0.053909,-0.011454,-0.126602,0
8.018,-1.039083,7.205986,5.482555,-0.072846,-0.060323,-0.145844,0
8.039,-0.431306,7.935796,3.880560,0.050854,-0.059101,-0.168446,0
8.060,-1.655235,9.702297,5.470591,0.062308,-0.056963,-0.180969,0
8.084,-0.862613,7.992626,4.683352,0.136986,-0.044440,-0.137139,0
8.101,-0.923031,8.024331,3.418745,0.097738,-0.066737,-0.162948,0
8.122,-1.176671,9.447462,6.687939,-0.047800,-0.082772,-0.113468,0
8.143,-1.158724,7.297511,2.492723,0.037110,-0.078954,-0.113010,0
8.162,-0.790230,8.745169,7.323832,-0.077427,-0.095448,-0.107359,0
8.182,-0.600598,8.611769,3.384049,0.092088,-0.052229,-0.090561,0
8.204,-1.223331,8.518449,5.580062,0.004887,-0.072998,-0.097433,0
8.225,-1.227518,7.853842,4.776672,0.043677,-0.060781,-0.067195,0
8.246,-0.944567,7.911868,5.230711,0.117439,-0.043982,-0.079107,0
8.266,-1.531407,8.746964,3.607180,-0.048411,-0.057421,-0.039553,0
8.288,-1.436890,8.530413,5.913861,-0.009163,-0.030696,-0.016646,0
8.305,-1.395614,8.481958,2.880959,0.143706,-0.032223,-0.017257,0
8.326,-1.459024,8.619545,5.525626,-0.348193,-0.120493,0.012981,0
8.346,-0.920040,9.241679,10.117453,-0.117133,-0.028558,0.052229,0
8.369,-1.258026,7.289136,2.715255,0.122326,0.028558,0.043982,0
8.391,-0.778864,9.175877,4.696513,0.070097,0.011606,0.080634,0
8.406,-1.411167,8.464610,3.361916,0.014966,0.021075,0.056352,0
8.429,-0.501296,7.758728,3.333800,0.049175,0.025809,0.064446,0
8.450,-0.512064,9.086145,6.339185,-0.012217,0.015119,0.039401,0
8.469,-0.477368,7.891529,5.771488,0.024740,0.040012,0.046273,0
8.488,-0.104088,8.140981,3.806383,-0.037415,0.002596,0.037415,0
8.510,-0.690928,9.013165,5.912665,0.045357,0.023824,0.000764,0
8.529,-0.298505,7.122835,3.940979,0.085827,0.033292,-0.016646,0
8.550,-0.405583,9.005388,5.374878,0.040470,0.013286,-0.013134,0
8.569,-0.539581,8.463413,3.931408,-0.007483,0.021533,-0.035583,0
8.591,-0.094516,8.633304,4.969295,-0.024129,0.003207,-0.029932,0
8.610,-0.418744,8.102695,4.835895,-0.024740,0.023060,-0.054367,0
8.630,-0.634098,8.414361,4.575675,0.037721,0.045357,-0.050244,0
8.652,-0.738784,8.636893,6.422336,-0.015577,0.016341,-0.073762,0
8.671,-1.032503,8.359924,4.300500,0.039248,0.004276,-0.100335,0
8.693,-0.692124,8.496315,5.307281,-0.002291,-0.049327,-0.151647,0
8.715,-0.905085,8.740981,3.762115,0.042608,-0.073915,-0.170126,0
8.734,-0.560519,9.635299,6.945766,0.008705,-0.129351,-0.222355,0
8.752,-0.768096,6.364310,4.424329,0.015119,-0.139888,-0.236863,0
8.775,-0.596411,7.942377,6.842875,0.002596,-0.186925,-0.249691,0
8.793,-1.010968,9.844072,5.877969,0.093615,-0.169057,-0.233656,0
8.815,-1.618146,7.006783,1.572084,0.044899,-0.217468,-0.258243,0
8.834,-0.755534,7.186843,6.701100,-0.021686,-0.239001,-0.228005,0
8.856,-2.106880,8.851051,-1.307079,-0.013439,-0.216857,-0.196088,0
8.875,-0.642473,9.785448,15.116657,0.513279,0.060017,-0.099113,0
8.894,-1.780260,7.820941,-1.962713,0.160505,-0.097891,-0.052993,0
8.914,-1.145564,7.809575,10.910075,-0.118660,-0.099571,-0.025045,0
8.936,-1.816751,9.788439,3.174079,-0.288786,-0.125380,0.022755,0
8.955,-1.318445,8.315059,4.757530,0.039248,0.033139,0.108123,0
8.977,-1.073181,7.965706,4.396214,0.045968,0.055741,0.127060,0
8.999,-1.568495,7.508079,3.625725,-0.082772,0.074373,0.153022,0
9.018,-0.695713,7.617551,3.686742,-0.166002,0.051618,0.126907,0
9.036,-0.628116,9.245867,6.317650,-0.112552,0.042455,0.111177,0
9.058,-0.594616,8.876176,3.729214,0.032070,0.074373,0.062155,0
9.079,-0.811765,7.532008,5.402994,-0.081092,-0.000611,0.018479,0
9.099,-0.241675,8.231310,6.113662,0.017715,0.011454,-0.015730,0
9.118,-0.830908,9.217153,2.300699,0.067653,-0.015272,-0.074067,0
9.140,-0.486341,8.292925,10.696515,-0.085368,-0.071166,-0.083230,0
9.159,-1.018146,7.342975,0.993620,0.032529,-0.102167,-0.126144,0
9.182,-0.644267,9.257233,5.864808,0.144622,-0.087201,-0.164323,0
9.200,-0.942772,8.583055,3.653242,0.144928,-0.096364,-0.178831,0
9.222,-0.760918,7.213762,5.739185,0.027183,-0.122173,-0.155465,0
9.241,-0.498305,8.202596,9.165708,-0.122478,-0.160047,-0.128434,0
9.262,-0.725623,9.647263,-2.328216,0.370642,-0.077580,-0.125685,0
9.282,-1.152742,8.935996,8.464012,-0.366366,-0.131794,-0.097280,0
9.301,-0.822533,8.646464,4.166502,0.006109,-0.055131,-0.078802,0
9.320,-0.638884,9.798609,6.159125,-0.036194,-0.044899,-0.060628,0
9.343,-1.462613,8.389236,3.616153,0.029780,-0.019700,-0.061392,0
9.361,-1.052244,6.491728,4.883751,-0.136070,-0.081550,-0.056200,0
9.383,-0.728615,8.468798,5.959325,0.101251,-0.049785,-0.130114,0
9.401,-1.034298,7.578668,6.251847,-0.098502,-0.128282,-0.123700,0
9.424,-0.715454,7.497312,2.160121,0.048869,-0.122326,-0.145386,0
9.442,-0.802792,10.150353,5.373682,0.137292,-0.116064,-0.180511,0
9.465,-1.363909,7.727023,4.349554,0.099876,-0.158672,-0.216399,0
9.484,-1.455434,8.722437,5.292923,0.125685,-0.189063,-0.197920,0
9.505,-0.853639,8.011768,7.995617,0.037415,-0.244193,-0.216552,0
9.524,-1.491925,9.235697,2.881557,0.110108,-0.270919,-0.231212,0
9.544,-1.113859,8.267202,5.944370,0.171500,-0.250149,-0.230601,0
9.569,-1.384248,8.434700,3.312265,0.141568,-0.287565,-0.240223,0
9.589,-1.262214,8.321041,5.906682,0.058032,-0.265879,-0.153327,0
9.606,-1.576272,7.888538,5.029713,0.094531,-0.251524,-0.135917,0
9.629,-1.883750,9.893126,3.505485,0.039095,-0.223882,-0.074220,0
9.648,-1.728216,7.923234,4.896912,-0.036194,-0.196088,-0.012217,0
9.667,-1.652244,8.395218,5.918048,0.002902,-0.149967,0.041233,0
9.689,-2.200799,8.600403,2.035096,0.118202,-0.069791,0.121562,0
9.710,-2.038087,9.325428,8.624331,0.011301,-0.063835,0.143248,0
9.729,-1.847259,7.545766,4.183850,0.106290,0.025504,0.210596,0
9.748,-1.108475,7.731808,4.015755,-0.060170,-0.002138,0.269086,0
9.770,-1.843670,9.713065,7.110272,-0.262366,0.007178,0.289397,0
9.789,-0.984646,7.037889,2.845664,0.189521,0.169515,0.334143,0
9.811,-1.013959,7.466803,7.637292,-0.025962,0.166919,0.377209,0
9.830,-0.732802,8.918648,2.862414,0.130725,0.235030,0.378431,0
9.855,-0.379262,8.245069,3.842275,0.014203,0.201433,0.357356,0
9.876,-1.302892,9.448060,5.090730,-0.001985,0.117897,0.224646,0
9.894,-0.421735,7.755138,5.227719,-0.057421,0.081092,0.209068,0
9.914,-0.372682,7.569096,7.085746,-0.007789,0.061697,0.145691,0
9.933,-0.145364,9.162716,4.029513,0.147524,0.022297,0.039553,0
9.952,-0.834497,8.503493,5.243273,-0.111941,-0.083078,-0.003818,0
9.976,0.284746,7.383653,2.882753,-0.081703,-0.209221,-0.132405,0
9.994,0.040080,8.714062,6.797411,0.010690,-0.192270,-0.170279,0
10.013,-0.759721,8.252247,3.246462,0.192728,-0.172722,-0.186772,0
10.035,-0.997807,8.773284,6.028119,-0.116370,-0.235336,-0.143095,0
10.053,-1.351347,9.288938,3.540181,-0.070097,-0.204182,-0.103542,0
10.076,-1.091725,7.554739,4.095914,-0.034667,-0.119271,-0.010079,0
10.095,-1.579263,9.272786,3.217150,0.115759,-0.060170,0.035430,0
10.113,-2.158326,9.088538,4.555934,-0.084910,-0.087201,0.061086,0
10.136,-1.713261,7.587042,6.447461,-0.117591,-0.020006,0.147371,0
10.156,-1.721038,8.750552,4.525426,0.001527,0.054825,0.242055,0
10.178,-1.585843,8.192427,6.240481,0.006261,0.103694,0.251524,0
10.199,-1.560120,8.283952,4.114459,-0.052840,0.166002,0.340557,0
10.219,-0.936790,8.850452,6.726224,-0.012217,0.188146,0.330936,0
10.238,-2.073381,7.710273,3.584448,0.060934,0.192881,0.314443,0
10.257,-0.348156,8.154739,3.881158,-0.058032,0.147066,0.312457,0
10.279,-1.175474,9.113065,4.809574,0.089797,0.174249,0.260228,0
10.299,-0.552144,8.313862,5.572286,0.053145,0.157603,0.273057,0
10.319,-0.641875,8.884550,6.244071,0.127976,0.170126,0.239154,0
10.338,-0.714258,7.617551,2.368296,-0.106901,0.116217,0.250149,0
10.361,-0.156132,8.150552,8.613564,-0.191048,0.121715,0.259923,0
10.382,-0.497109,8.273184,3.578466,0.025962,0.211359,0.285885,0
10.401,-0.668794,8.278568,5.152345,0.056505,0.287870,0.294590,0
10.421,-1.057029,9.446265,6.990632,-0.192270,0.270002,0.340557,0
10.441,-1.045065,6.737590,0.926022,-0.030543,0.336587,0.375682,0
10.461,-0.422931,8.937193,6.801000,0.102167,0.440128,0.369268,0
10.484,-0.635893,7.944171,3.434897,0.054825,0.437074,0.374307,0
10.503,-0.977468,8.822935,7.909475,-0.030391,0.426536,0.338572,0
10.523,-1.246661,8.173284,4.293920,-0.069486,0.399811,0.328493,0
10.542,-0.052044,7.700103,5.155935,-0.043677,0.390190,0.304363,0
10.564,-0.014955,8.431708,4.902296,0.066126,0.388052,0.204029,0
10.583,0.054437,7.539186,4.739583,-0.020617,0.331547,0.166919,0
10.605,-0.542573,9.761520,4.693521,0.073456,0.291688,0.055589,0
10.625,0.373280,7.536793,3.751946,0.039553,0.255494,0.064294,0
10.646,0.157926,7.957930,5.912066,-0.033598,0.204792,-0.032070,0
10.665,-0.372682,8.893523,4.454837,-0.003665,0.169820,-0.081245,0
10.689,-0.035294,7.527820,3.961916,-0.019090,0.137903,-0.104458,0
10.707,-0.221934,8.857632,5.112864,-0.056047,0.118966,-0.130725,0
10.724,-0.310469,8.387442,7.424330,-0.068417,0.056810,-0.182190,0
10.749,0.044865,7.995617,4.575675,0.072235,0.078343,-0.197309,0
10.769,-0.002991,8.389236,4.305884,-0.001527,0.026114,-0.234725,0
10.788,-0.795015,8.749954,4.044468,0.038179,-0.001833,-0.280845,0
10.809,-0.014955,8.005786,5.203193,0.035430,-0.044746,-0.296422,0
10.829,-0.966700,8.702098,6.088537,0.050091,-0.075289,-0.346360,0
10.851,-0.239880,8.822935,4.393222,-0.078649,-0.138208,-0.332921,0
10.871,-0.750150,9.182457,5.998208,-0.049938,-0.158825,-0.360716,0
10.890,-0.361914,8.422736,2.581257,0.039248,-0.135765,-0.334754,0
10.909,-1.170689,7.545766,5.880362,0.042150,-0.145691,-0.332005,0
10.931,-0.522234,8.484949,3.803392,0.096211,-0.126296,-0.306349,0
10.949,-0.377468,9.455837,6.278767,0.018784,-0.136070,-0.274278,0
10.978,-0.565903,7.973483,1.945365,-0.081092,-0.117744,-0.232434,0
10.998,-0.573679,9.637691,6.695118,-0.054520,-0.113315,-0.253356,0
11.014,-0.629312,7.466803,1.826322,0.113010,-0.068111,-0.248469,0
11.031,0.056231,8.787043,7.499704,-0.100640,-0.068417,-0.190743,0
11.054,-0.276969,8.008778,5.020740,0.096822,-0.006414,-0.191964,0
11.079,-0.748355,8.434102,5.542376,0.038179,-0.016035,-0.196546,0
11.096,-1.039083,8.802596,3.570091,0.027489,-0.030849,-0.207083,0
11.115,-0.333799,8.763115,4.974678,-0.059101,-0.098807,-0.262366,0
11.137,-1.096511,7.975278,5.179863,0.049022,-0.085063,-0.263588,0
11.156,-1.031307,7.828718,2.412563,0.091935,-0.107054,-0.270613,0
11.175,-1.248455,9.008977,7.661818,-0.069028,-0.191201,-0.330325,0
11.196,-1.193420,7.829914,2.569891,-0.015730,-0.252593,-0.363312,0
11.216,-1.174876,8.199605,4.730610,0.028100,-0.253967,-0.355676,0
11.237,-1.082154,7.988439,4.987241,-0.018326,-0.276416,-0.349109,0
11.256,-1.010369,9.732806,4.792225,-0.056200,-0.268933,-0.304516,0
11.278,-0.594018,8.773284,4.566104,0.045357,-0.237626,-0.290924,0
11.297,-1.057029,8.779266,7.211967,-0.103694,-0.254731,-0.274278,0
11.316,-1.548156,7.092925,4.682754,-0.003971,-0.208458,-0.241444,0
11.340,-1.485943,9.385847,6.115457,0.005498,-0.162032,-0.163406,0
11.359,-1.785046,8.519047,3.561118,0.086743,-0.118050,-0.132863,0
11.377,-0.946960,8.072785,5.700302,0.012370,-0.107970,-0.088423,0
11.399,-0.899103,8.461020,4.947161,-0.010690,-0.121409,-0.101251,0
11.418,-1.493720,8.609974,3.705884,0.020159,-0.122173,-0.119119,0
11.441,-1.411167,8.508878,4.466802,0.002902,-0.144164,-0.114690,0
11.459,-0.753141,8.343174,4.749753,-0.029780,-0.190590,-0.142026,0
11.481,-0.675374,7.859226,6.716653,-0.062919,-0.230907,-0.189063,0
11.501,-0.985245,8.681161,5.673382,0.060476,-0.237474,-0.244957,0
11.523,-0.769891,8.958130,3.601198,0.157909,-0.240070,-0.241292,0
11.543,-0.687338,9.815358,8.263015,0.109956,-0.253967,-0.259923,0
11.560,-1.631905,6.987640,4.688138,0.135154,-0.257785,-0.260534,0
11.582,-0.619741,6.486942,-1.987837,0.439670,-0.237779,-0.171195,0
11.601,-1.043869,10.545170,10.501500,-0.237626,-0.286343,-0.192881,0
11.623,-1.761117,7.627720,2.168495,-0.062155,-0.253967,-0.184939,0
11.642,-0.957129,8.090732,6.059225,0.159588,-0.206930,-0.160963,0
11.664,-1.613361,8.614161,5.484350,0.032223,-0.245262,-0.170737,0
11.683,-1.653440,9.129216,2.839682,0.142179,-0.206014,-0.133932,0
11.705,-1.457229,8.575278,5.365306,0.144928,-0.198073,-0.130878,0
11.724,-1.843670,8.673982,4.555934,0.091630,-0.213039,-0.112094,0
11.744,-1.491925,8.414361,5.879165,0.112399,-0.206930,-0.087812,0
11.766,-1.864607,8.749356,4.265206,0.050244,-0.221744,-0.073609,0
11.785,-0.716650,8.180463,4.439882,0.043677,-0.226784,-0.054062,0
11.809,-1.975275,8.096115,4.831109,0.099724,-0.206167,-0.076205,0
11.829,-0.864407,8.702098,7.345965,-0.046120,-0.243430,-0.040470,0
11.847,-1.418944,7.850851,5.216353,0.070402,-0.220522,-0.049175,0
11.865,-0.901496,8.826525,4.799404,0.020311,-0.231976,-0.034361,0
11.888,-1.496112,7.674380,2.962913,0.005650,-0.225715,-0.025045,0
11.906,-1.453640,8.902496,4.325027,0.040012,-0.211817,-0.019700,0
11.929,-1.971088,8.310273,4.193422,0.055131,-0.200822,-0.007789,0
11.948,-0.838086,9.914660,4.789235,-0.006414,-0.200822,0.029932,0
11.969,-0.406182,8.237890,7.664211,0.000000,-0.175318,0.024893,0
11.989,-1.761716,7.403393,5.479564,0.076053,-0.152716,0.007178,0
12.010,-1.241875,9.052048,3.832704,0.065210,-0.135612,0.089644,0
12.029,-1.454836,7.365706,2.333002,0.098807,-0.107207,0.076358,0
12.051,-0.933201,8.054839,6.163313,-0.109650,-0.143095,0.101098,0
12.069,-1.658824,8.315059,6.083153,-0.000916,-0.116064,0.085216,0
12.090,-0.934397,8.566305,4.716253,-0.020311,-0.142179,0.099113,0
12.112,-1.304088,8.864810,5.482555,0.076358,-0.125075,0.082925,0
12.132,-0.844666,8.415557,5.227719,0.113315,-0.113010,0.070249,0
12.152,-0.926621,6.964909,2.593820,0.185245,-0.098197,0.081245,0
12.176,-1.775474,10.297512,7.810771,-0.164170,-0.145539,0.116370,0
12.191,-1.142573,8.015956,2.181656,-0.001833,-0.075747,0.157756,0
12.213,-0.491127,8.447861,8.478967,-0.106290,-0.078802,0.179747,0
12.237,-1.879562,8.076973,2.501098,0.155160,0.020617,0.167988,0
12.254,-1.063610,8.187641,4.673781,-0.017104,-0.005040,0.234267,0
12.273,-1.875973,9.598209,4.883153,0.009010,0.055741,0.254883,0
12.295,-1.131207,7.620542,2.789433,0.009774,0.118508,0.304516,0
12.316,-0.711865,7.727023,10.101899,0.118508,0.282067,0.415541,0
12.339,-1.557129,8.265408,-0.782453,0.220675,0.329562,0.443182,0
12.356,-1.328615,8.638688,7.222735,-0.073915,0.286190,0.466548,0
12.376,-1.087538,8.487940,2.828915,-0.002138,0.348956,0.458607,0
12.397,-0.602393,8.118847,4.223930,-0.066432,0.354607,0.486554,0
12.416,-1.101297,9.093325,5.970092,-0.234878,0.319024,0.417984,0
12.435,-0.692124,7.133004,5.190032,0.021991,0.346208,0.378278,0
12.457,0.019143,7.642077,6.747760,0.084605,0.255952,0.242208,0
12.477,0.000000,8.383254,4.210171,-0.103389,0.022755,0.035583,0
12.498,-0.558126,7.812566,4.433900,-0.045204,-0.110872,-0.105985,0
12.517,-0.098106,9.418150,4.267001,0.075747,-0.118966,-0.161574,0
12.539,-0.368495,8.252247,4.454239,-0.072540,-0.187535,-0.170889,0
12.558,-0.068195,8.796016,3.489334,-0.031918,-0.197462,-0.194408,0
12.580,-0.341575,8.540583,5.408377,-0.035430,-0.222813,-0.230296,0
12.599,-0.791426,9.906285,4.581059,-0.053909,-0.204487,-0.179136,0
12.621,-0.642473,7.581060,5.129613,-0.154702,-0.150578,-0.096822,0
12.640,-1.737189,8.540583,4.246662,-0.161421,-0.074373,0.002596,0
12.661,-0.714856,8.564510,6.065207,-0.172264,-0.004581,0.066737,0
12.681,-1.420738,8.505886,2.635096,0.066584,0.121868,0.125227,0
12.703,-0.999602,8.998210,4.880760,0.016646,0.161116,0.211512,0
12.723,-0.938585,8.566903,5.670990,-0.177914,0.138208,0.204487,0
12.743,-0.876970,7.457232,3.043072,0.082161,0.252134,0.244193,0
12.760,-0.210568,8.385647,3.087938,-0.110108,0.232281,0.245262,0
12.783,-1.620539,9.216555,7.219146,0.075900,0.304363,0.213345,0
12.802,0.276371,7.476374,3.119642,-0.085979,0.232892,0.246026,0
12.824,-0.373280,8.614161,6.540781,0.080176,0.217010,0.103236,0
12.842,-0.577867,8.219944,4.083950,-0.046273,0.099113,0.040317,0
12.865,-0.095713,8.586046,4.759324,-0.022297,0.012523,-0.078954,0
12.883,-0.589233,8.527422,6.706484,-0.107970,-0.100945,-0.160657,0
12.906,0.141775,7.995018,2.771487,-0.000458,-0.139888,-0.206930,0
12.925,-0.394816,8.437691,6.025726,-0.116217,-0.221133,-0.251982,0
12.945,-0.767498,8.590832,3.259623,0.055589,-0.199295,-0.265421,0
12.968,-0.841077,8.486744,5.032704,0.038484,-0.178220,-0.216093,0
12.986,-0.787837,8.696713,5.210371,0.143095,-0.092546,-0.152716,0
13.010,-1.398007,8.904291,4.017549,0.120035,-0.021991,-0.064599,0
13.029,-1.637289,8.694920,5.013562,-0.085216,-0.032681,-0.000153,0
13.048,-1.749153,9.238090,4.552345,-0.064446,0.043524,0.076053,0
13.066,-1.583450,7.835298,4.302295,-0.018173,0.184481,0.218842,0
13.089,-1.832304,8.182856,4.964509,-0.086743,0.240528,0.294437,0
13.108,-1.115654,8.991031,6.305686,-0.153174,0.282983,0.361632,0
13.129,-1.349552,7.396215,2.927619,-0.050549,0.323911,0.334907,0
13.149,-0.888335,8.662616,6.468398,-0.123853,0.306043,0.326507,0
13.170,-0.438485,8.584849,5.266603,-0.027336,0.271988,0.236557,0
13.189,-0.599402,8.579466,4.560720,0.073762,0.281456,0.202654,0
13.211,0.007777,7.981858,4.572086,0.067959,0.229074,0.156534,0
13.229,-0.253639,7.995018,5.065606,0.082009,0.154549,0.052534,0
13.250,-0.073579,8.373085,3.829713,0.047342,0.106901,0.001680,0
13.269,-0.527019,8.373085,5.385645,-0.005956,0.038943,-0.065210,0
13.290,0.378066,9.466604,4.106084,0.016799,0.028405,-0.085979,0
13.312,-1.601995,8.862417,4.558925,0.008247,0.002443,-0.168293,0
13.335,0.924826,7.957930,7.000203,0.043524,0.001527,-0.080787,0
13.350,-1.367498,7.597212,3.296113,0.079871,-0.014813,-0.172417,0
13.373,-0.610170,8.487342,5.632705,0.078496,-0.005040,-0.143248,0
13.392,-0.753141,9.722038,2.399403,-0.094531,-0.038332,-0.100029,0
13.413,-0.704088,8.070393,4.326821,-0.176998,-0.032987,-0.115912,0
13.436,-0.736391,8.680562,7.673184,0.074831,0.017715,-0.117897,0
13.457,-1.390828,9.059825,3.187838,0.095753,0.019700,-0.105221,0
13.472,-0.376271,8.100901,5.317450,-0.005498,-0.005040,-0.085368,0
13.495,-0.708874,8.286943,3.406781,-0.000305,-0.005040,-0.117286,0
13.513,0.011964,8.416754,6.384051,0.021075,-0.020922,-0.125991,0
13.536,-0.605982,8.404191,3.299702,0.020922,-0.062003,-0.163406,0
13.554,-0.387039,9.340981,6.342774,-0.045662,-0.121562,-0.228463,0
13.577,-0.261416,7.412366,3.067000,0.005498,-0.159283,-0.258396,0
13.596,-0.119641,8.015956,4.319643,-0.102473,-0.244040,-0.317497,0
13.618,-1.219741,9.485747,6.974480,0.073609,-0.214108,-0.332310,0
13.637,-0.899701,7.920243,1.186840,0.108276,-0.239917,-0.330478,0
13.658,-0.707677,9.381660,7.607980,0.001069,-0.300087,-0.342390,0
13.677,-0.763909,9.407382,5.924629,0.147371,-0.228158,-0.311541,0
13.696,-1.180858,7.800004,2.583052,0.160047,-0.243735,-0.297797,0
13.717,-1.520041,8.918050,6.226723,0.011606,-0.264046,-0.269544,0
13.739,-1.690529,9.581460,4.631907,0.060934,-0.132100,-0.076816,0
13.757,-0.794417,6.734599,2.017149,0.014813,-0.113163,-0.051160,0
13.782,-1.004387,9.017950,5.190630,0.061850,-0.068722,-0.046120,0
13.799,-1.631307,8.889337,6.214758,-0.032681,-0.068570,-0.018937,0
13.820,-0.400798,7.935198,4.497310,0.000000,-0.058185,0.020922,0
13.843,-0.975075,7.925627,4.781458,-0.034361,-0.066737,-0.021380,0
13.861,-1.147957,8.091928,4.508078,-0.123242,-0.084147,0.008705,0
13.880,-0.437887,9.513265,4.816752,-0.018326,-0.076969,-0.043371,0
13.902,-1.262214,8.766106,4.066004,0.080634,-0.068264,-0.051160,0
13.922,-0.087338,7.588837,7.492526,-0.268017,-0.175165,-0.030085,0
13.943,-1.051047,7.142576,3.002992,-0.060170,-0.147677,-0.097127,0
13.962,-0.769891,8.551350,6.802197,-0.110719,-0.167530,-0.088423,0
13.984,-1.399203,9.687343,2.748755,0.479529,-0.032376,-0.163101,0
14.003,-0.699302,7.809575,5.807381,-0.292146,-0.224951,-0.084452,0
14.023,-1.240080,7.864610,4.799404,-0.032376,-0.149204,-0.067806,0
14.045,-1.245464,8.730213,4.869394,-0.180511,-0.155007,-0.002902,0
14.062,-1.138385,8.489735,6.198607,-0.222813,-0.116522,0.027031,0
14.085,-1.814358,7.935198,3.096911,-0.035430,-0.035125,0.073304,0
14.105,-1.201197,9.792028,4.896313,0.000000,-0.004734,0.093310,0
14.125,-1.660021,8.112267,6.798009,-0.036346,0.000611,0.107665,0
14.146,-0.843470,8.200203,3.551547,0.012675,0.014355,0.114843,0
14.164,-1.380659,8.780462,4.706682,-0.033292,0.007025,0.120340,0
14.188,-1.188635,7.705487,4.290331,0.058796,0.029474,0.121409,0
14.205,-1.187438,7.621738,6.450452,0.004429,0.012981,0.112552,0
14.229,-0.227318,8.386245,4.086941,0.028863,-0.005650,0.095448,0
14.248,-1.265803,8.362915,4.346562,0.092088,0.007483,0.060476,0
14.269,-1.248455,8.791828,4.537390,0.022449,-0.041386,0.067348,0
14.288,-0.903291,8.288139,4.234698,0.023366,-0.048106,0.055741,0
14.307,-1.108475,8.087142,5.681757,0.017868,-0.038026,0.063988,0
14.329,-1.186242,9.055039,3.438486,0.100487,-0.016341,0.071624,0
14.349,-1.640878,8.809774,5.680561,-0.127671,-0.068875,0.082467,0
14.369,-1.252643,8.346764,4.328018,0.036194,-0.000764,0.126907,0
14.390,-1.436890,8.435298,5.730810,-0.000611,0.028405,0.155923,0
14.409,-0.296112,8.591430,3.425924,0.136528,0.064904,0.173791,0
14.429,-1.171287,8.742776,5.042275,-0.106901,0.036041,0.179594,0
14.451,-0.370888,8.295917,5.230711,-0.069180,0.071013,0.212581,0
14.470,-0.585045,7.789834,3.764508,-0.009468,0.129351,0.223271,0
14.496,-0.956531,9.632308,4.928617,-0.036041,0.152258,0.243735,0
14.517,-0.671187,9.191430,2.714059,-0.063988,0.186466,0.272293,0
14.531,-0.594616,7.460821,5.042275,-0.062614,0.220369,0.273362,0
14.553,-0.451047,8.377871,4.691727,-0.023824,0.253356,0.276111,0
14.576,-1.055833,9.071191,5.928816,0.006414,0.269239,0.236557,0
14.594,-0.716052,8.385049,3.605984,-0.126907,0.245720,0.250607,0
14.613,-0.858425,8.106883,5.075775,-0.010690,0.264963,0.216399,0
14.632,-0.541974,8.569296,5.402994,-0.064904,0.210748,0.175318,0
14.653,-0.582652,7.799406,5.405386,0.020617,0.163254,0.079565,0
14.674,-0.328415,7.941180,4.995017,0.021686,0.093768,0.011301,0
14.694,-0.505484,8.875577,4.240680,0.011759,0.016646,-0.058796,0
14.713,-0.890130,7.896913,6.026922,-0.040775,-0.060170,-0.130420,0
14.736,-0.195613,8.645866,4.845466,0.078496,-0.074220,-0.139888,0
14.756,-0.894317,8.918050,2.922235,0.035736,-0.092393,-0.167224,0
14.776,-0.801596,8.557332,5.625526,-0.002291,-0.087965,-0.128282,0
14.797,-1.151546,8.446066,3.531806,0.026725,-0.041997,-0.084910,0
14.816,-1.338186,8.330612,6.393024,-0.026725,-0.015882,-0.026267,0
14.837,-1.572683,8.581261,3.651447,-0.031765,0.013897,0.027947,0
14.857,-1.471586,8.851051,4.905885,-0.049327,0.023976,0.051618,0
14.879,-1.936392,8.262417,3.955934,0.067653,0.080329,0.079565,0
14.898,-1.828117,9.281759,4.603192,-0.108734,0.054367,0.154702,0
14.919,-1.009771,8.166703,4.890331,0.061239,0.101709,0.151189,0
14.939,-1.628316,8.051848,5.097311,-0.047189,0.076511,0.142026,0
14.958,-0.896710,8.610572,4.728218,-0.003665,0.101404,0.182801,0
14.980,-0.896112,8.650652,4.939384,-0.010843,0.101098,0.180663,0
14.998,-0.693320,8.776276,2.606382,0.029780,0.160963,0.211359,0
15.021,-1.024128,8.140981,6.384649,-0.082009,0.181274,0.241139,0
15.040,-1.235295,7.743174,5.842675,-0.110414,0.214872,0.280234,0
15.061,-0.947558,8.623135,4.869394,0.005345,0.277791,0.320551,0
15.087,-1.204786,8.394022,4.810172,0.007178,0.313984,0.333074,0
15.102,-0.793819,9.348160,3.987041,-0.023518,0.313679,0.345139,0
15.121,-0.899103,7.601997,5.580661,-0.052229,0.338725,0.333990,0
15.143,-0.299103,8.158927,7.251449,-0.083230,0.366213,0.367435,0
15.162,-0.111266,6.872187,1.445863,-0.009621,0.395840,0.344986,0
15.183,-0.101695,9.343972,8.186444,-0.019548,0.412028,0.292146,0
15.203,-0.306879,7.916654,3.683750,-0.052993,0.417984,0.292757,0
15.222,-0.227318,8.201400,5.475975,-0.027947,0.428980,0.274889,0
15.244,-0.033500,8.405986,5.406583,-0.060170,0.390801,0.208610,0
15.263,-0.370289,7.706684,5.014160,-0.012523,0.352316,0.129198,0
15.285,-0.174078,7.765308,4.870591,-0.023060,0.272293,0.048106,0
15.304,-0.448056,8.909077,4.895715,0.142026,0.256105,-0.026267,0
15.326,0.066401,8.484949,4.725226,0.089492,0.169820,-0.101556,0
15.346,0.277567,8.589635,6.363712,0.061697,0.111941,-0.174555,0
15.365,0.391825,7.716853,3.592225,0.011606,0.053451,-0.215941,0
15.388,0.476172,8.482556,5.581259,-0.013439,-0.002596,-0.275500,0
15.406,0.392423,8.117651,4.375875,-0.047037,-0.071318,-0.348804,0
15.425,0.284746,8.431110,5.711070,-0.055741,-0.108887,-0.397673,0
15.448,0.598804,7.982456,5.740382,0.018326,-0.111636,-0.417068,0
15.466,0.303888,8.096115,5.880960,-0.002138,-0.204182,-0.510836,0
15.490,-0.015553,8.059625,5.014758,-0.025045,-0.290008,-0.577420,0
15.507,-0.695115,9.470194,5.864210,0.116981,-0.332005,-0.648128,0
15.529,-0.517448,7.417152,4.696513,-0.047953,-0.413403,-0.653473,0
15.549,-0.573679,7.904091,6.708278,-0.031918,-0.484874,-0.688292,0
15.570,-1.100698,8.851051,4.289733,0.024129,-0.545808,-0.722348,0
15.590,-1.245464,8.888738,6.667002,0.061086,-0.540310,-0.693179,0
15.611,-2.229512,7.465607,1.291526,0.140041,-0.529162,-0.659887,0
15.630,-1.654039,8.863613,7.207780,-0.026725,-0.541684,-0.541379,0
15.649,-1.495514,9.013762,2.745166,0.070249,-0.458149,-0.456621,0
15.672,-2.636891,8.787043,5.972486,0.093615,-0.343306,-0.340099,0
15.694,-0.843470,9.230313,2.608177,0.150884,-0.175929,-0.082467,0
15.712,-2.213959,9.687941,5.617151,0.014050,-0.140652,-0.034667,0
15.730,-1.728814,8.178069,3.927220,-0.012981,-0.002596,0.088575,0
15.756,-0.808176,8.676973,6.180661,0.021533,0.105221,0.225715,0
15.771,-1.256830,8.297710,-1.332204,0.117286,0.208763,0.262825,0
15.794,-0.457627,9.053245,9.621540,-0.144164,0.243277,0.311083,0
15.816,-1.168894,7.916654,2.979064,0.169973,0.350178,0.269544,0
15.834,0.326022,7.898109,6.866205,-0.040164,0.265115,0.260228,0
15.853,-0.891925,8.692527,3.619742,0.080634,0.255647,0.158214,0
15.876,0.361914,8.596813,4.912465,-0.026725,0.160352,0.074984,0
15.896,-0.482752,8.035098,3.945166,-0.006720,0.099571,-0.033750,0
15.916,-0.698704,8.086544,6.083153,-0.034972,0.022602,-0.138666,0
15.935,-0.538983,8.319246,3.653242,0.085521,-0.013592,-0.182190,0
15.953,-0.711267,9.125628,6.244071,-0.005956,-0.116217,-0.280234,0
15.977,0.129212,7.420741,3.874578,0.108429,-0.195935,-0.377056,0
15.995,-1.453640,8.207381,5.907879,0.000000,-0.314595,-0.473420,0
16.017,-0.947558,8.523832,4.868796,0.028558,-0.372628,-0.498160,0
16.036,-1.354936,8.374281,5.585446,0.084605,-0.425315,-0.536950,0
16.058,-0.714856,8.290532,6.268597,0.064294,-0.444251,-0.526565,0
16.077,-0.829113,8.514261,5.246264,0.021533,-0.441961,-0.478460,0
16.099,-1.713261,8.839087,2.350350,0.010690,-0.394619,-0.369726,0
16.118,-1.618744,8.601599,6.383452,0.028252,-0.368657,-0.363465,0
16.141,-1.530210,8.225926,4.132405,0.030238,-0.332005,-0.309250,0
16.158,-1.052842,8.723633,5.345566,0.021228,-0.291993,-0.239917,0
16.177,-1.408774,8.862417,4.467400,0.153938,-0.223882,-0.208152,0
16.200,-1.420140,8.259425,3.938586,0.013897,-0.260687,-0.184481,0
16.218,-0.993021,8.521440,5.972486,0.043982,-0.248775,-0.177914,0
16.240,-1.728216,8.894122,3.043670,0.103542,-0.243124,-0.199295,0
16.259,-0.993021,7.728817,3.404987,0.061545,-0.258854,-0.164781,0
16.281,-1.234098,8.675776,8.084749,0.031765,-0.266032,-0.183259,0
16.303,-1.211366,8.787043,4.496712,0.026420,-0.286496,-0.198684,0
16.322,-1.025324,8.959925,4.743173,0.004123,-0.294437,-0.184939,0
16.341,-0.951147,7.542177,5.161318,-0.040317,-0.298102,-0.163101,0
16.363,-0.909273,8.674581,6.247660,0.024587,-0.265268,-0.150425,0
16.382,-1.188635,7.984849,2.007578,0.105832,-0.236863,-0.158519,0
16.401,-0.828515,8.129017,5.196612,0.010690,-0.225256,-0.109803,0
16.423,-1.491327,8.843872,6.093921,0.149356,-0.177304,-0.117439,0
16.443,-1.399203,8.328817,5.982057,0.054062,-0.196698,-0.088117,0
16.464,-1.216750,8.348558,4.314259,0.074526,-0.182496,-0.079412,0
16.483,-1.400399,8.742178,5.400601,-0.006261,-0.206625,-0.091782,0
16.505,-1.343570,8.705687,4.454239,0.048411,-0.186619,-0.079718,0
16.524,-1.367498,8.024331,4.152744,0.054520,-0.191048,-0.095753,0
16.547,-1.208375,7.990831,5.716453,0.083230,-0.178525,-0.072235,0
16.564,-1.051047,8.901898,5.059025,0.099266,-0.193491,-0.101404,0
16.585,-1.213759,8.284551,4.906483,0.078038,-0.190743,-0.098349,0
16.609,-1.238286,8.542975,3.984050,0.124769,-0.193033,-0.095142,0
16.626,-1.062413,8.813962,5.655437,0.142484,-0.174402,-0.100793,0
16.646,-1.622334,7.025327,3.039483,-0.028100,-0.232129,-0.098502,0
16.669,-1.182054,8.291729,6.775277,0.041539,-0.210901,-0.083230,0
16.688,-1.872982,8.998210,5.015954,0.088270,-0.202502,-0.092393,0
16.706,-1.419542,8.362317,3.881158,0.132863,-0.201585,-0.076816,0
16.729,-1.464407,8.398210,5.069793,-0.019395,-0.214108,-0.060170,0
16.747,-1.785644,8.226524,3.509673,0.039706,-0.180969,-0.020922,0
16.769,-1.039681,9.038289,6.090930,0.050244,-0.158367,-0.007636,0
16.789,-2.221736,8.513064,4.436293,-0.008399,-0.155312,0.008247,0
16.810,-1.599004,8.988040,3.501896,0.049175,-0.100640,0.068722,0
16.829,-1.691127,8.381459,4.319045,0.040012,-0.055283,0.117133,0
16.851,-2.018944,8.262417,4.014558,0.112399,0.010690,0.135154,0
16.870,-1.504487,8.045866,5.491528,-0.045509,0.015272,0.216399,0
16.889,-2.024926,9.067003,3.863810,0.024587,0.081245,0.231823,0
16.911,-1.144367,8.565108,3.415156,-0.071166,0.094989,0.288634,0
16.930,-1.019342,8.776276,5.104489,-0.055436,0.134543,0.287259,0
16.957,-0.786640,8.603992,5.053043,-0.142026,0.128587,0.264046,0
16.970,-0.966700,7.153343,4.653442,0.011454,0.158367,0.221286,0
16.992,0.031107,8.872586,7.983055,0.009010,0.094989,0.159283,0
17.011,-0.476172,8.742178,3.741776,-0.050549,-0.000764,0.033750,1
17.034,-0.448056,6.909873,3.351148,0.158367,-0.064141,-0.098655,1
17.053,0.074178,10.114461,7.183852,-0.318108,-0.250913,-0.152716,1
17.075,-0.911067,7.087541,2.765505,0.088270,-0.219300,-0.268170,1
17.093,0.330210,8.334800,8.788239,-0.000764,-0.282678,-0.291382,1
17.116,-1.353739,8.236095,0.154935,0.119424,-0.269697,-0.310319,1
17.134,-0.806381,8.140981,5.619544,-0.122326,-0.324827,-0.292604,1
17.155,-1.654637,9.615558,8.761918,-0.042761,-0.297949,-0.262214,1
17.178,-2.371886,8.659027,4.441677,0.022297,-0.245262,-0.242361,1
17.194,-1.771287,8.427522,4.426722,0.107970,-0.217162,-0.151953,1
17.216,-2.131407,8.474779,4.590032,0.158825,-0.166613,-0.118202,1
17.235,-2.626721,7.951350,1.546362,0.203418,-0.098044,-0.060781,1
17.257,-1.688735,8.678169,5.511867,0.043524,-0.097127,0.042913,1
17.276,-2.481955,8.257032,3.667001,-0.007941,0.054062,0.201433,1
17.296,-2.023132,8.023134,4.838886,-0.028405,0.089492,0.253662,1
17.318,-1.170689,8.912068,3.848257,-0.067806,0.114995,0.295506,1
17.337,-1.227518,7.892128,5.388038,0.005650,0.187841,0.306196,1
17.359,-1.439881,8.128419,5.269594,-0.185245,0.199753,0.342084,1
17.379,-1.223331,9.075378,4.472784,0.033750,0.245568,0.284510,1
17.397,-0.739980,8.127222,4.292724,-0.022907,0.227700,0.269697,1
17.419,-1.138984,7.659425,6.297909,-0.131183,0.196240,0.258701,1
17.438,-0.528814,8.734401,3.714259,-0.033292,0.167072,0.187535,1
17.460,-1.174876,8.971889,5.299504,-0.071166,0.132863,0.111025,1
17.479,-1.637289,8.055437,5.413761,-0.064446,0.086285,0.080176,1
17.501,-0.061017,8.174480,2.400599,0.143859,0.074526,0.009774,1
17.520,-2.897110,9.542577,6.428318,-0.118660,0.012523,-0.059101,1
17.542,1.487139,6.214758,5.207380,-0.033292,-0.019090,0.043982,1
17.563,-0.653839,8.848659,5.395217,-0.024740,-0.078038,-0.177304,1
17.584,-1.849054,8.242676,4.625925,-0.044135,-0.089339,-0.149356,1
17.602,0.041874,8.543573,5.676373,-0.035125,-0.118813,-0.149967,1
17.621,-0.753141,9.941580,2.121835,0.149662,-0.081550,-0.205861,1
17.643,-0.692722,9.190832,4.712664,0.003971,-0.101862,-0.163101,1
17.662,-0.598206,7.231110,5.048856,-0.006414,-0.108429,-0.214719,1
17.685,-1.231107,7.626524,6.296114,-0.121715,-0.120646,-0.189063,1
17.703,-0.690329,8.338388,4.544569,0.005498,-0.066279,-0.155618,1
17.725,-0.720838,8.343773,3.183650,0.058185,-0.023366,-0.139735,1
17.749,-0.644267,9.107083,5.314459,0.084452,0.030391,-0.108123,1
17.768,-0.981057,8.088339,4.338786,0.013439,0.012217,-0.125075,1
17.784,-0.672981,8.319844,5.199604,0.016493,0.020769,-0.121715,1
17.809,-1.085743,8.533403,4.481159,-0.000305,-0.009010,-0.158672,1
17.825,-0.811167,8.391629,2.703291,0.093157,-0.024587,-0.220064,1
17.844,-0.604786,8.468798,5.160720,-0.092241,-0.137903,-0.258396,1
17.869,-1.027119,8.612367,6.089734,-0.040317,-0.188299,-0.357050,1
17.885,-0.625125,8.048259,5.261219,-0.025504,-0.272904,-0.414319,1
17.911,-0.284746,8.391629,4.409374,0.114843,-0.311694,-0.523206,1
17.926,-0.451047,8.633903,5.206184,0.065363,-0.367282,-0.564439,1
17.949,-0.062812,8.468200,5.914459,0.005192,-0.446389,-0.594677,1
17.972,-0.257827,8.304889,5.029115,0.113468,-0.462730,-0.655611,1
17.988,-0.497707,8.527422,4.099504,0.014661,-0.529772,-0.683252,1
18.010,-0.669990,8.902496,5.190630,-0.025656,-0.598953,-0.719904,1
18.029,-0.508475,8.186444,5.080561,0.087201,-0.575435,-0.732885,1
18.051,-1.371686,8.181659,4.889135,0.143095,-0.587805,-0.731511,1
18.069,-0.495912,8.980862,4.448855,0.023366,-0.616973,-0.695317,1
18.089,-1.862812,9.576077,4.837689,0.008247,-0.611476,-0.684932,1
18.111,-1.530210,7.819745,4.667799,-0.012065,-0.621249,-0.669355,1
18.132,-1.234098,7.848458,6.800402,0.098960,-0.614988,-0.654083,1
18.152,-1.887339,8.761918,4.366303,0.156076,-0.612087,-0.647517,1
18.170,-1.447060,8.096714,5.330012,0.176082,-0.642172,-0.648891,1
18.192,-1.490130,9.002397,4.166502,0.178525,-0.650418,-0.650571,1
18.211,-0.688535,9.386445,5.796015,0.222049,-0.659429,-0.616363,1
18.233,-1.261616,9.083155,5.133203,0.224798,-0.656985,-0.623693,1
18.256,-1.755734,7.971689,4.630112,0.143859,-0.664468,-0.587041,1
18.276,-1.333999,10.071390,6.926623,0.234878,-0.614835,-0.534659,1
18.294,-2.276173,7.683353,0.425922,0.305432,-0.512363,-0.447764,1
18.314,-0.872184,8.514859,8.228319,0.193797,-0.473267,-0.356898,1
18.336,-2.644069,9.078369,1.049851,0.294437,-0.343001,-0.269239,1
18.354,-1.183251,8.362317,6.819544,0.132100,-0.355218,-0.218690,1
18.376,-1.741975,8.174480,3.385844,0.233656,-0.265879,-0.171500,1
18.396,-1.916651,8.491529,3.887739,0.147677,-0.245109,-0.135612,1
18.414,-1.420738,8.790034,6.774081,0.061392,-0.259923,-0.122020,1
18.436,-2.166103,6.214758,5.237290,0.179747,-0.226173,-0.170431,1
18.455,-2.204388,8.362915,5.018347,0.229532,-0.272598,-0.188452,1
18.477,-2.580061,8.896515,4.883751,0.089950,-0.375682,-0.223118,1
18.496,-2.354537,7.314859,2.749951,0.263130,-0.380111,-0.273515,1
18.518,-1.221536,8.527422,9.699904,-0.009010,-0.502589,-0.291077,1
18.537,-2.901298,7.695318,0.707677,0.070249,-0.648280,-0.397673,1
18.559,-1.170689,9.066405,6.484550,0.145997,-0.636216,-0.424093,1
18.578,-1.582852,8.794820,5.880362,0.149204,-0.634841,-0.419970,1
18.600,-2.508875,8.612367,4.704289,0.176234,-0.620180,-0.365603,1
18.619,-3.142972,9.805787,4.283751,0.162185,-0.586277,-0.284816,1
18.638,4.338786,20.812174,43.685165,-0.650571,-0.555734,-0.178983,1
18.659,-10.191629,2.894119,3.143571,1.762498,0.083536,-0.405003,1
18.679,2.411965,5.781060,-13.865809,2.726442,-0.548557,0.166002,1
18.701,-5.969494,13.145570,3.001796,0.213039,-0.138055,-0.047189,1
18.720,-4.625925,7.291529,0.976272,0.766788,-0.034667,0.109345,1
18.742,-3.199204,9.710074,9.031111,-0.168293,0.245873,0.456163,1
18.761,-3.063411,6.658029,-1.069592,0.770148,0.299629,0.501520,1
18.783,-0.013161,2.858227,-7.114460,0.712879,0.190437,0.454636,1
18.801,-1.593022,3.314657,-7.038488,0.320246,0.055741,0.321926,1
18.823,1.998007,8.355737,1.443470,-0.057421,-0.149204,0.159130,1
18.844,1.886142,10.517054,20.025532,-2.020741,-0.292146,-0.182190,1
18.861,0.388235,4.681558,0.502493,1.576184,-0.026573,-0.439364,1
18.883,0.370289,7.961519,2.318645,-0.321773,-0.521984,-0.423787,1
18.902,-1.237687,8.150552,5.167301,0.165086,-0.573449,-0.567799,1
18.924,-2.801397,7.499106,5.303093,-0.213497,-0.792597,-0.654542,1
18.943,-3.748955,5.408377,-5.295317,0.323758,-0.821155,-0.618195,1
18.965,-1.829313,5.944370,-3.436692,-0.023366,-0.863610,-0.493731,1
18.986,-1.838286,10.916057,11.732608,-0.966235,-0.752891,-0.392633,1
19.006,-3.021537,6.075975,-1.735993,0.370184,-0.573907,-0.313984,1
19.027,-0.755534,11.204392,12.647264,-0.947146,-0.626747,-0.168904,1
19.048,-2.974278,8.325228,-4.051647,0.281609,-0.474489,-0.091477,1
19.066,-3.893721,13.570893,-4.642076,-0.295659,-0.468686,0.027489,1
19.085,-0.805185,13.956138,2.737987,-1.095891,-0.463799,0.169362,1
19.109,0.332602,9.178867,49.999825,-1.350469,-0.418595,0.142637,1
19.128,-9.408579,4.647460,-2.526222,0.710283,0.472657,0.179136,1
19.148,-2.930011,7.599605,6.028119,-0.606436,-0.161268,0.335365,1
19.169,-3.973880,10.139585,-1.530808,0.213345,0.226784,0.580322,1
19.189,-1.755135,9.072986,6.763911,-0.592997,0.178983,0.713337,1
19.208,0.160917,7.743773,4.562515,-0.586888,0.323606,0.790459,1
19.231,-0.313460,7.164709,2.866003,-0.340252,0.317344,0.635758,1
19.249,1.107279,4.935197,6.830312,-0.570242,0.232587,0.566272,1
19.271,2.276173,4.530810,8.475976,-0.047647,0.205098,0.269544,1
19.289,1.942972,6.496513,3.994219,0.077733,0.175318,0.165086,1
19.311,-0.274576,12.305689,-0.333799,0.285274,0.110719,-0.040470,1
19.333,-1.533799,8.244471,5.639883,-0.166919,-0.094073,-0.181427,1
19.352,-1.735395,5.142176,6.915257,-0.046426,-0.179136,-0.287870,1
19.371,-1.503889,7.077970,5.499305,0.008858,-0.316123,-0.408821,1
19.390,-0.366700,6.918249,7.381259,0.010537,-0.425162,-0.488386,1
19.416,-2.843870,7.189236,9.426525,0.206167,-0.439975,-0.564592,1
19.435,-3.141178,4.077370,5.123033,0.084910,-0.562912,-0.547793,1
19.451,-1.328017,6.617949,6.040082,0.160810,-0.647669,-0.573449,1
19.474,0.390030,11.845669,0.390628,0.472657,-0.562301,-0.539852,1
19.496,-1.673181,8.571091,4.164708,0.426536,-0.481820,-0.519999,1
19.515,-0.232702,5.484948,5.556134,0.600480,-0.369879,-0.351400,1
19.533,-3.905685,10.262816,2.300101,0.578642,-0.304058,-0.355676,1
19.556,-1.820938,7.910073,1.339981,0.791681,-0.212581,-0.216399,1
19.575,-5.836094,21.008984,-0.597607,0.307265,-0.214261,-0.088117,1
19.597,1.328615,11.157732,-18.020945,2.714378,-0.236863,-0.150578,1
19.615,-0.838086,2.069792,28.719854,-3.864178,-0.243582,-0.009010,1
19.639,-0.540180,12.262618,1.470389,2.078620,0.299782,-0.149509,1
19.657,-0.765105,6.781260,6.182456,-0.850782,-0.094226,-0.042302,1
19.678,0.762712,6.879365,9.586246,0.233350,-0.106138,-0.232281,1
19.699,-2.086541,6.705287,0.294915,0.097127,-0.242208,-0.236252,1
19.717,-0.658026,7.429116,7.258029,-0.672562,-0.382554,-0.262519,1
19.743,-0.705284,8.270791,4.650451,-0.094226,-0.334907,-0.337350,1
19.760,-0.381057,7.908877,8.762517,-0.472809,-0.427453,-0.352469,1
19.779,-1.022334,7.640283,0.798006,-0.286496,-0.475864,-0.462425,1
19.797,-1.483550,8.662018,3.825525,0.180358,-0.405156,-0.481056,1
19.820,-0.320040,9.162716,5.205585,-0.032529,-0.480751,-0.477696,1
19.838,-1.128814,8.089535,4.934598,-0.022449,-0.480903,-0.523053,1
19.860,-2.051247,9.024530,5.906085,-0.072998,-0.518166,-0.506407,1
19.879,-2.449652,8.298907,3.905087,0.011759,-0.512057,-0.505491,1
19.901,-2.121237,9.141779,6.194419,-0.042455,-0.525344,-0.456011,1
19.920,-2.251646,8.684152,4.408776,0.123242,-0.484416,-0.444557,1
19.942,-1.755734,8.178668,6.288936,-0.069639,-0.526107,-0.392939,1
19.961,-2.282155,9.064013,4.998607,0.060781,-0.479376,-0.381638,1
19.982,-1.880759,7.282556,4.578068,0.095753,-0.476933,-0.369115,1
20.004,-1.216152,7.769495,5.316852,0.075747,-0.489303,-0.333379,1
20.022,-1.155733,9.227921,5.779265,0.140499,-0.478154,-0.353996,1
20.044,-1.406381,7.114460,2.815754,0.240986,-0.470060,-0.391717,1
20.065,-1.124028,9.315259,7.033104,0.100640,-0.513126,-0.384845,1
20.084,-1.468595,8.243274,5.293522,0.141110,-0.490677,-0.360410,1
20.107,-1.305883,7.249654,4.911269,0.169668,-0.501062,-0.373697,1
20.124,-1.150948,9.633504,7.616354,0.219911,-0.478765,-0.370184,1
20.146,-1.619941,7.488338,-0.215952,0.394771,-0.481514,-0.386372,1
20.166,-1.314856,8.974879,8.241479,-0.072998,-0.536339,-0.337350,1
20.189,-2.027319,7.482357,3.987041,0.085368,-0.519846,-0.313526,1
20.207,-1.542174,8.549556,5.663811,0.051924,-0.523053,-0.308639,1
20.229,-1.781456,8.335996,4.720441,0.104763,-0.499687,-0.295353,1
20.249,-1.533201,8.260024,5.539384,0.189368,-0.464715,-0.298102,1
20.266,-1.707279,8.444869,4.862216,0.172722,-0.447764,-0.262366,1
20.289,-2.019542,8.199605,5.301897,0.155160,-0.436157,-0.228311,1
20.309,-2.071586,9.227323,6.128617,0.243124,-0.397673,-0.214566,1
20.328,-2.289931,8.513064,1.565504,0.191506,-0.376751,-0.160352,1
20.350,-1.509871,8.668598,4.715057,0.172569,-0.336587,-0.114232,1
20.369,-2.212165,7.919645,5.634499,0.119424,-0.327729,-0.111025,1
20.389,-2.205584,6.835098,2.236093,0.226020,-0.261297,-0.063377,1
20.411,-1.406381,9.175279,3.765106,0.118660,-0.280082,-0.015577,1
20.430,-1.192224,10.444073,9.790234,-0.113010,-0.262672,0.016646,1
20.456,-1.517648,6.620342,3.150749,0.205098,-0.098502,0.054214,1
20.471,-0.971486,9.055039,7.098309,0.131641,-0.151647,0.013439,1
20.494,-1.540978,8.764311,3.957130,0.073609,-0.175776,-0.048258,1
20.519,-1.812563,7.269993,4.666602,0.118660,-0.183718,-0.076053,1
20.534,-0.937388,9.524033,6.549754,0.081856,-0.217315,-0.080023,1
20.553,-1.893919,7.895717,3.882953,0.144164,-0.226631,-0.136223,1
20.573,-0.843470,7.118648,5.664410,0.140193,-0.288328,-0.197920,1
20.598,-1.340579,8.403593,4.526622,0.097127,-0.332921,-0.238085,1
20.614,-0.738784,7.613962,3.510271,0.262214,-0.326965,-0.272446,1
20.632,-1.158724,9.469596,6.650851,0.018937,-0.397215,-0.290161,1
20.655,-0.863211,9.136395,3.515056,0.176540,-0.363006,-0.312610,1
20.674,-0.296710,7.419545,5.233103,0.073915,-0.434936,-0.361021,1
20.696,-0.677169,9.074780,6.397810,0.208305,-0.425162,-0.421497,1
20.715,-1.061217,8.411968,2.468795,0.096975,-0.477849,-0.421497,1
20.737,-1.144966,7.460223,3.423531,-0.071013,-0.540921,-0.445779,1
20.759,-0.543769,9.270393,7.856235,0.154702,-0.463494,-0.474642,1
20.779,-1.684547,7.575078,3.348755,-0.014508,-0.551764,-0.457996,1
20.797,-0.512662,7.941778,5.934200,0.052840,-0.530231,-0.479834,1
20.819,-1.804188,7.521240,5.202595,0.124922,-0.542906,-0.481514,1
20.838,-1.424926,8.782257,5.082953,0.208458,-0.520304,-0.479529,1
20.857,-2.033899,10.588241,4.372285,0.203571,-0.516486,-0.462425,1
20.877,-2.218147,8.230712,3.991228,0.162795,-0.514501,-0.423024,1
20.899,-2.124826,8.026125,5.364708,-0.032987,-0.556803,-0.377820,1
20.917,-2.397010,8.567501,7.986045,0.109956,-0.531452,-0.376293,1
20.940,-2.836691,7.546364,1.114457,-0.060476,-0.602160,-0.318566,1
20.958,-1.742573,9.458828,7.383054,0.207694,-0.525955,-0.344680,1
20.981,-2.236691,7.524231,4.062415,0.195019,-0.512821,-0.312305,1
21.001,-1.360918,7.077371,7.446464,0.055283,-0.530078,-0.244804,1
21.022,-2.507678,9.103494,4.712664,0.135459,-0.495411,-0.247706,1
21.041,-1.793421,7.786245,5.392824,0.156534,-0.479987,-0.225562,1
21.062,-2.057229,8.797811,5.850451,0.187383,-0.459981,-0.199753,1
21.081,-1.660021,7.795816,4.880760,0.160810,-0.463494,-0.175776,1
21.103,-2.350350,8.800203,4.615755,0.123242,-0.475406,-0.159436,1
21.123,-2.781058,9.037691,4.962116,0.207847,-0.450207,-0.166613,1
21.144,-2.234896,7.322636,4.711468,0.229991,-0.453414,-0.134238,1
21.163,-1.814358,8.336594,5.806782,0.181274,-0.453109,-0.129809,1
21.182,-1.768894,7.258029,1.783849,0.173486,-0.450666,-0.077580,1
21.207,-2.440679,9.658031,5.351548,0.166308,-0.406378,-0.059254,1
21.224,-2.392225,9.173484,5.220541,0.191048,-0.377820,-0.005956,1
21.245,-1.957927,7.391429,7.420741,0.196698,-0.351553,0.040470,1
21.264,-1.849054,9.156734,6.345766,0.203571,-0.346055,0.058796,1
21.286,-2.093122,6.841678,1.795215,0.155923,-0.361937,0.059712,1
21.306,-1.751546,8.865408,6.452845,0.182496,-0.321620,0.062919,1
21.325,-2.285744,9.051450,4.348955,0.179900,-0.309403,0.106596,1
21.345,-1.238884,7.768299,5.980860,0.185703,-0.272140,0.133474,1
21.366,-1.901696,7.006185,3.067000,0.181274,-0.266795,0.136528,1
21.385,-1.437488,8.962915,5.783453,0.220675,-0.242361,0.140499,1
21.409,-2.254039,8.532207,4.752146,0.182649,-0.228922,0.146760,1
21.425,-1.126421,7.474580,4.028317,0.098349,-0.241597,0.166461,1
21.449,-2.312663,9.327223,5.067400,0.046426,-0.224187,0.204334,1
21.466,-1.837688,8.292925,4.162315,0.165239,-0.172722,0.224035,1
21.489,-1.576272,8.313862,4.581657,0.045968,-0.175624,0.253051,1
21.511,-1.243071,7.901100,4.470391,0.104611,-0.136070,0.264199,1
21.529,-2.124228,8.281559,6.065805,0.045662,-0.113926,0.270308,1
21.549,-1.330409,8.414361,3.079563,0.047800,-0.058948,0.358272,1
21.569,-1.435694,8.816954,4.456034,-0.063683,-0.057879,0.365908,1
21.590,-1.837090,8.370692,6.863214,-0.116064,-0.018479,0.393397,1
21.609,-1.011566,7.344171,4.426124,0.175471,0.058948,0.365908,1
21.629,-1.527219,8.580662,6.095716,0.189063,0.051618,0.328951,1
21.650,-1.874776,9.183055,1.725823,0.138361,0.037415,0.324369,1
21.669,-0.882952,9.013165,5.424529,0.062155,-0.013897,0.316428,1
21.691,-1.558326,7.840084,3.225525,0.094837,0.003360,0.253967,1
21.710,-0.699901,7.279565,5.948557,0.063530,-0.023976,0.242513,1
21.732,-0.479761,8.286345,5.468796,0.093004,-0.030391,0.231365,1
21.751,-0.921237,9.009576,5.906085,0.041997,-0.027183,0.196698,1
21.773,-0.355334,7.527820,2.848655,0.069944,-0.017257,0.220522,1
21.795,-1.244268,9.240483,5.290531,-0.049327,-0.033292,0.207999,1
21.814,-0.742373,8.502297,6.940980,-0.127060,-0.007789,0.226631,1
21.833,-0.278764,8.841479,7.943573,0.079871,0.090255,0.272293,1
21.856,-1.002593,8.173284,-1.198206,0.067959,0.167835,0.316581,1
21.875,-0.942174,8.857632,9.098110,0.070860,0.235183,0.350789,1
21.893,-1.471586,9.251250,3.762115,-0.063530,0.290313,0.396146,1
21.915,-0.836291,7.986045,7.884949,-0.026267,0.331394,0.431576,1
21.937,-0.511466,7.125227,0.790828,0.220980,0.369879,0.388205,1
21.956,-1.055235,8.499905,5.927620,-0.283441,0.275805,0.340404,1
21.975,-0.666999,8.336594,4.801198,-0.002749,0.260228,0.262061,1
21.996,-0.957129,8.194819,2.778067,0.061850,0.250913,0.184023,1
22.017,-0.701097,8.708079,6.360123,0.136376,0.201738,0.132252,0
22.036,-0.973879,8.635697,4.184449,0.139430,0.168446,0.045357,0
22.058,0.002991,7.745567,5.919843,-0.007178,0.065210,0.022755,0
22.080,-0.664607,8.758329,6.256633,0.109956,0.043219,-0.080787,0
22.099,-0.834497,8.241479,4.296911,-0.051924,-0.033598,-0.087812,0
22.118,-1.159323,7.506285,4.454837,-0.054367,-0.089950,-0.120188,0
22.141,-0.787239,8.537591,5.164907,0.098044,-0.063530,-0.114232,0
22.159,-1.412962,9.527023,3.585645,0.139583,-0.065057,-0.160199,0
22.180,-1.500898,8.676973,4.403392,-0.068111,-0.123700,-0.142790,0
22.197,-0.613161,7.584051,5.688936,-0.014813,-0.104611,-0.084147,0
22.220,-0.881755,10.010972,3.490530,0.099724,-0.040012,-0.066584,0
22.238,-0.726820,8.397611,3.850052,-0.003818,-0.068875,-0.058338,0
22.260,-1.152144,9.541979,4.843671,0.083688,-0.023366,-0.047953,0
22.279,-1.115654,7.520642,3.988237,0.001985,-0.048411,-0.039095,0
22.301,-0.471386,8.298309,4.932206,0.034514,-0.037415,-0.028558,0
22.320,-0.304487,8.744571,4.227520,-0.050244,-0.072998,-0.069944,0
22.342,-0.391825,9.183055,5.215755,0.088423,-0.045662,-0.080329,0
22.361,-0.503091,8.501698,3.111866,-0.031612,-0.116522,-0.115301,0
22.383,-1.051646,8.556734,7.552347,0.054520,-0.102778,-0.148135,0
22.402,0.210568,8.473583,4.410570,-0.048564,-0.161268,-0.137139,0
22.424,-0.913460,8.112865,5.272585,-0.086132,-0.193186,-0.189215,0
22.443,-1.277169,7.719844,-1.070190,0.209832,-0.190743,-0.180205,0
22.462,-0.457029,10.310075,7.551748,-0.027794,-0.213192,-0.196546,0
22.483,-1.852045,9.387043,4.295116,0.015424,-0.191812,-0.157298,0
22.502,-0.614955,9.245867,6.547959,0.231823,-0.117439,-0.122020,0
22.524,-1.973480,6.654440,2.349154,-0.036346,-0.176540,-0.101404,0
22.544,-1.079163,10.352547,9.519247,0.042302,-0.129198,-0.038943,0
22.565,-1.770689,8.494520,-1.670190,0.353233,-0.047495,0.015882,0
22.584,-1.456631,8.471190,5.380262,-0.204182,-0.051160,0.109498,0
22.608,-1.829911,9.798011,5.823532,-0.002902,0.063225,0.179289,0
22.625,-2.082952,8.097910,3.369094,-0.045509,0.137139,0.271988,0
22.649,-1.965106,7.836494,4.038486,0.033598,0.207999,0.358119,0
22.668,-2.864209,9.256635,2.758924,0.103389,0.275958,0.386525,0
22.685,-1.596611,8.270193,4.846064,0.170126,0.372322,0.461661,0
22.707,-1.884946,8.860024,5.136194,-0.047037,0.362701,0.504880,0
22.725,-2.843271,8.444271,5.125426,-0.006872,0.411112,0.524733,0
22.749,-1.722832,8.102098,1.810170,0.025351,0.439517,0.544739,0
22.767,-0.138186,7.507481,6.305686,-0.133932,0.419359,0.538172,0
22.789,-0.443869,9.053843,5.916852,-0.074526,0.443030,0.468533,0
22.809,-0.580260,8.396415,3.849453,-0.000764,0.437226,0.437837,0
22.829,-0.315853,8.580662,5.133801,0.008858,0.365603,0.296575,0
22.849,-0.802194,7.844869,4.668397,-0.101556,0.304516,0.256105,0
22.873,-0.565304,8.835498,4.284349,-0.014203,0.223424,0.134238,0
22.889,-0.370289,9.808778,4.805984,-0.065973,0.174402,0.094379,0
22.910,0.020339,8.353344,3.418147,0.019242,0.127060,0.011912,0
22.931,-0.504287,8.547162,7.358528,-0.044899,0.062766,-0.059712,0
22.949,-0.298505,8.520244,1.101895,0.127823,0.049022,-0.093768,0
22.976,0.124427,8.538788,7.920243,0.020922,0.012523,-0.122478,0
22.992,-0.012562,7.305287,-0.134596,0.120951,0.046426,-0.125380,0
23.015,-0.354138,9.034101,9.792626,0.192117,0.014508,-0.154702,0
23.032,-0.549153,8.397013,-1.011566,-0.133474,-0.017257,-0.124922,0
23.053,-0.244666,8.743374,8.240283,-0.060323,-0.014813,-0.144011,0
23.072,-1.015753,9.224930,3.283551,-0.022907,-0.001069,-0.152716,0
23.093,-0.803390,7.159924,6.149554,-0.063988,-0.026114,-0.160047,0
23.113,-1.063610,10.104890,6.437291,0.080634,-0.003360,-0.136223,0
23.131,-1.465604,7.572685,-0.461815,0.138972,0.000458,-0.156534,0
23.153,0.012562,8.273783,8.527422,-0.135459,-0.073762,-0.132558,0
23.178,-2.046462,8.544171,0.957129,0.178678,-0.010537,-0.184023,0
23.195,-0.942772,10.304092,9.089137,-0.273515,-0.164323,-0.163559,0
23.213,-0.942772,7.712068,1.353739,0.067042,-0.132405,-0.184634,0
23.236,-0.138186,9.394221,5.903093,0.009468,-0.187077,-0.213803,0
23.254,-0.923630,9.444471,4.457829,0.101862,-0.168293,-0.222202,0
23.277,-1.103091,9.851251,6.822536,0.037568,-0.282220,-0.268170,0
23.299,-0.205783,10.615159,10.146166,0.135154,-0.264046,-0.272140,0
23.317,-0.607179,8.952147,3.512065,-0.044135,-0.341932,-0.284052,0
23.337,0.450449,8.035697,-1.194617,-0.667522,-0.298407,-0.261297,0
23.356,-1.409971,10.107283,15.558133,1.089019,-0.130572,-0.313374,0
23.377,-1.297508,8.297710,-0.465404,0.463494,-0.273362,-0.239612,0
23.395,-0.844666,7.174281,5.667400,-0.219911,-0.280234,-0.175929,0
23.418,-1.504487,9.129815,2.755934,0.604145,-0.190284,-0.169820,0
23.441,-1.663012,8.827123,3.409772,0.342848,-0.163254,-0.056658,0
23.459,-1.055833,8.673384,6.999604,0.306654,-0.085368,0.045815,0
23.478,-0.796810,7.198209,0.399601,0.295659,-0.029627,0.110414,0
23.500,-0.892523,11.006386,7.822137,-0.040775,-0.015424,0.152411,0
23.518,-2.105086,6.924231,1.095913,0.332769,0.143401,0.262519,0
23.543,-1.701297,7.831110,8.030313,-0.085979,0.135307,0.317192,0
23.559,-2.371287,9.480363,-0.759721,0.163406,0.229380,0.381332,0
23.581,-1.237687,8.819346,3.681956,-0.060934,0.258243,0.439975,0
23.600,-1.975873,7.072586,4.247859,-0.006109,0.300240,0.461356,0
23.619,-1.411167,7.619944,2.882753,0.038790,0.308334,0.465632,0
23.642,-1.303490,9.097511,4.685147,-0.033292,0.288175,0.437074,0
23.662,-0.975673,7.981858,1.353141,0.026573,0.287259,0.409890,0
23.680,-0.596411,11.196017,4.174279,-0.133016,0.237932,0.355371,0
23.702,-0.451645,7.788638,7.165308,-0.263894,0.199447,0.314137,0
23.721,-0.184247,6.217152,4.515256,-0.245568,0.195019,0.296728,0
23.745,-0.637687,10.930414,4.374080,-0.168446,0.184023,0.243277,0
23.762,-0.619143,8.291729,4.772485,-0.258701,0.147829,0.215177,0
23.784,-0.595813,6.994221,3.887739,-0.245720,0.146302,0.187688,0
23.803,-1.067199,7.393822,4.615755,-0.333227,0.136376,0.205556,0
23.825,-0.538983,7.867601,3.510271,-0.258243,0.170889,0.224340,0
23.844,-1.214357,7.888538,3.725027,-0.285274,0.197767,0.232739,0
23.863,-1.031307,8.972486,3.876373,-0.255189,0.230754,0.276874,0
23.885,-0.607179,6.801000,3.670590,-0.329409,0.239917,0.271682,0
23.904,-1.240679,7.825128,5.812166,-0.378583,0.245415,0.294284,0
23.926,-0.244666,8.417352,3.186043,-0.272598,0.275042,0.287717,0
23.945,-1.145564,7.984251,3.989434,-0.344680,0.271071,0.262214,0
23.965,-0.373879,8.118847,4.492525,-0.300240,0.283289,0.288175,0
23.988,0.032303,6.801599,3.868596,-0.350942,0.288175,0.260839,0
24.008,-0.739382,8.613564,4.569693,-0.342084,0.302225,0.256258,0
24.029,-0.366102,7.131210,4.252644,-0.308945,0.303294,0.239154,0
24.048,-0.720240,8.364710,4.786243,-0.318871,0.288023,0.209221,0
24.069,0.142971,7.959126,3.420540,-0.360410,0.259007,0.178983,0
24.088,-0.192024,7.979465,5.532206,-0.251065,0.277180,0.148898,0
24.111,-0.002393,8.679964,4.330411,-0.206167,0.254425,0.108887,0
24.129,-0.521635,8.116454,4.224528,-0.147829,0.247706,0.071471,0
24.149,-0.525823,9.841082,6.323034,-0.348956,0.208458,0.054978,0
24.171,-0.646062,9.798011,9.907482,-0.184939,0.250455,0.057116,0
24.189,-0.674178,10.091131,5.489733,-0.063988,0.269391,0.062308,0
24.210,-0.936192,9.818948,10.258629,-0.190590,0.226020,0.045968,0
24.231,-1.004985,8.733803,7.038488,0.172569,0.325438,0.060170,0
24.250,-0.445663,8.258229,3.905685,0.175929,0.307265,0.058948,0
24.275,-0.334397,9.180662,6.985846,0.335059,0.291993,0.045662,0
24.290,0.111266,7.076175,0.219541,0.300698,0.321468,0.040164,0
24.314,0.066401,7.694719,4.372285,0.181732,0.288939,-0.001985,0
24.336,0.372682,9.345169,6.144769,0.121409,0.265726,-0.030696,0
24.354,-0.672383,9.172886,8.822935,0.095295,0.249996,-0.097127,0
24.374,0.318245,7.010970,2.273181,0.459065,0.287412,-0.072693,0
24.395,0.120239,7.702496,8.261818,-0.084910,0.155465,-0.163406,0
24.413,-0.103490,7.512865,-0.532403,0.541837,0.205709,-0.221591,0
24.432,0.310469,8.322835,6.441479,0.008094,0.102320,-0.297644,0
24.455,-0.321835,7.982456,-0.677169,0.548098,0.040470,-0.395382,0
24.474,-0.519841,8.595019,7.928618,0.209985,-0.055894,-0.465784,0
24.496,-0.822533,8.831908,0.746561,0.315359,-0.143248,-0.568562,0
24.516,-0.553938,8.207980,6.296114,0.218690,-0.216704,-0.578642,0
24.534,-1.149153,11.919846,-3.106482,0.618501,-0.254731,-0.630718,0
24.557,-0.883550,10.308878,11.429317,0.201738,-0.372628,-0.673326,0
24.576,-1.358525,9.015557,-3.533601,0.385608,-0.397368,-0.668744,0
24.598,0.322433,11.485549,9.611370,-0.225104,-0.480751,-0.625067,0
24.616,-0.258425,8.143373,3.498307,0.431118,-0.333379,-0.598800,0
24.639,-0.832702,7.552945,4.553542,-0.043830,-0.401491,-0.523358,0
24.659,-1.519442,7.293324,8.011170,0.006414,-0.382401,-0.497549,0
24.677,-0.995414,7.503892,3.952943,-0.001833,-0.273057,-0.308487,0
24.699,-1.630110,11.595618,-0.159721,-0.191201,-0.201433,-0.214261,0
24.717,-1.970490,9.020343,8.164909,-0.350026,-0.235794,-0.168904,0
24.740,-1.558326,7.645068,3.763312,0.382859,-0.082772,-0.173486,0
24.762,-1.794617,9.987641,5.580661,0.433256,-0.004276,-0.151494,0
24.780,-1.174876,7.234699,5.205585,-0.297338,-0.162490,-0.068875,0
24.799,-1.256232,7.758728,4.934598,0.096669,-0.091324,-0.118202,0
24.821,-1.194018,7.393224,4.810770,-0.074220,-0.147371,-0.071318,0
24.841,-1.884946,9.085547,4.047460,0.077122,-0.121562,-0.083841,0
24.860,-1.273580,9.644870,4.788636,-0.212581,-0.187994,-0.075900,0
24.882,-0.806381,7.263413,2.141576,0.045357,-0.155312,-0.092088,0
24.901,-1.887339,8.739186,6.544370,-0.105069,-0.197309,-0.116370,0
24.923,-0.718445,8.741579,2.716452,0.089492,-0.168904,-0.110108,0
24.942,-0.680758,7.561918,5.839684,0.029932,-0.195629,-0.122784,0
24.966,-0.857827,10.449456,0.810569,0.327271,-0.163101,-0.156840,0
24.983,-1.075574,8.467003,10.159925,-0.351553,-0.288023,-0.138361,0
25.006,-0.262014,6.140581,2.974278,0.030696,-0.243277,-0.161726,0
25.024,-0.524028,9.198608,5.345566,0.069639,-0.213039,-0.142484,0
25.042,-0.479761,9.385847,2.450849,0.100945,-0.220064,-0.155618,0
25.065,-0.664008,7.985447,4.690531,0.210137,-0.182343,-0.183107,0
25.084,-0.663410,8.478967,8.410173,0.025962,-0.239917,-0.169668,0
25.107,-1.550549,8.848659,3.573082,0.121868,-0.217926,-0.196393,0
25.124,-0.763909,9.046066,5.155336,0.040012,-0.229838,-0.111788,0
25.147,-1.101895,8.583653,3.407978,0.049785,-0.221744,-0.136223,0
25.165,-1.597807,7.283154,7.448259,-0.138972,-0.231823,-0.095295,0
25.189,-2.397010,8.897711,4.770092,0.045204,-0.209374,-0.079871,0
25.207,-2.010569,8.655437,5.029713,0.114537,-0.185856,-0.056352,0
25.229,-1.938785,7.457232,3.920640,-0.011301,-0.235794,-0.027031,0
25.249,-2.063810,8.308478,2.293520,0.174707,-0.176082,-0.010079,0
25.266,-1.543371,10.010373,9.223135,-0.114690,-0.194408,0.073915,0
25.289,-2.009373,7.946564,1.624128,0.180358,-0.042608,0.157298,0
25.309,-0.997807,8.230712,8.495118,0.104152,-0.053451,0.182190,0
25.329,-2.190031,9.247662,1.566102,0.140957,0.034361,0.241292,0
25.349,-1.203590,8.145168,3.855435,0.016188,0.025198,0.284663,0
25.370,-1.261018,9.735199,2.469991,0.197920,0.161879,0.318261,0
25.389,-1.327418,8.848659,7.286145,0.004429,0.140499,0.336892,0
25.412,-2.173879,7.700701,5.318646,0.052076,0.193950,0.332463,0
25.430,-1.593620,7.204789,1.664208,0.048106,0.174555,0.345749,0
25.452,-0.975075,10.054043,6.973283,0.041081,0.140041,0.295964,0
25.471,-0.881755,7.884351,1.664806,0.210748,0.175471,0.241292,0
25.490,-0.182453,7.823334,6.320641,0.020769,0.116370,0.238543,0
25.516,-1.014557,9.423533,3.339184,0.061392,0.099724,0.165086,0
25.533,-0.782453,5.811568,0.520439,-0.020311,0.062919,0.130725,0
25.551,-0.312862,10.085149,10.109077,0.305891,0.000764,0.085674,0
25.573,-0.186042,9.498908,2.568097,-0.693484,-0.167530,0.062308,0
25.596,-1.106082,6.515058,0.562313,-0.140652,-0.045662,0.011148,0
25.614,-0.261416,9.957133,10.453046,-0.637743,-0.044899,0.016035,0
25.633,-1.054637,8.198408,1.410569,0.362548,0.039401,-0.032987,0
25.656,-1.189831,10.883754,5.410770,-0.058185,-0.040775,-0.026420,0
25.674,-1.192822,6.809375,2.419144,0.083078,-0.020159,-0.013134,0
25.697,-0.873978,8.938987,7.678568,0.198073,0.051313,0.012370,0
25.719,-1.569093,7.851449,0.072383,0.102167,0.004123,0.038332,0
25.737,-1.033101,9.429516,6.403791,-0.560010,-0.051771,0.077885,0
25.756,-1.390230,7.489535,3.439084,-0.013286,0.060476,0.103083,0
25.778,-2.038685,9.531211,5.692525,0.015272,0.079718,0.099418,0
25.797,-1.325624,8.398210,6.427720,0.118508,0.130420,0.129961,0
25.819,-1.482952,7.831110,2.434697,-0.027031,0.137903,0.187841,0
25.842,-1.652244,8.364710,6.025726,-0.127976,0.154091,0.226784,0
25.857,-1.428515,8.566305,2.654238,0.085063,0.201127,0.222660,0
25.879,-1.300499,7.801200,6.755537,-0.312457,0.116370,0.227853,0
25.898,-1.517050,7.793423,5.764908,-0.069639,0.157909,0.212276,0
25.920,-0.559322,6.696912,5.090132,0.043830,0.148746,0.176082,0
25.941,-1.328017,11.480763,3.933800,-0.003360,0.095753,0.084452,0
25.961,-1.188036,7.291529,3.827320,-0.054978,0.062155,0.107207,0
25.981,0.522234,8.411369,3.343970,0.020769,0.046273,0.072082,0
26.000,-0.401396,8.781061,6.233901,-0.151036,0.004887,0.005498,0
26.022,-0.774078,8.369495,4.369892,-0.070860,-0.008858,-0.022602,0
26.042,-0.095115,7.504490,7.029515,-0.175318,-0.061239,-0.041692,0
26.061,-1.048056,8.866006,3.216552,-0.003207,-0.048869,-0.081245,0
26.083,0.177667,9.287143,4.366901,-0.011759,-0.053756,-0.084147,0
26.102,-0.924826,8.069795,6.498308,-0.110414,-0.083536,-0.101709,0
26.122,-0.655633,8.271390,4.469194,-0.045204,-0.075136,-0.091782,0
26.146,-1.207777,8.936594,4.576871,0.086132,-0.041081,-0.087812,0
26.162,-0.791426,8.684750,5.509474,0.013744,-0.035736,-0.051465,0
26.184,-1.322633,9.238688,4.772485,0.080940,-0.008705,-0.034208,0
26.203,-0.512064,7.223333,0.181855,0.058185,-0.026114,-0.034819,0
26.225,-1.174278,9.120243,5.888737,-0.126144,-0.020617,-0.008705,0
26.244,-0.668196,8.339585,3.141776,-0.022907,0.000458,0.020617,0
26.265,-0.990030,9.044271,9.010772,-0.190895,-0.017257,0.011606,0
26.284,-1.984248,8.322835,1.765305,0.081398,0.026725,0.012523,0
26.305,-1.089332,8.987442,5.949155,0.088881,0.053298,0.049175,0
26.328,-1.743171,8.380263,3.868596,0.172264,0.072387,0.037874,0
26.346,-0.326022,7.633104,5.450252,0.031765,0.025045,0.075747,0
26.365,-1.780260,9.578469,6.272785,0.075595,0.026267,-0.009163,0
26.389,-1.130609,8.056036,3.406781,-0.019242,-0.021075,0.051313,0
26.405,-0.963709,8.821739,3.166303,0.164475,0.018631,0.007483,0
26.429,-0.723829,8.483154,2.062015,0.059254,-0.019700,0.025504,0
26.446,-0.796212,8.693723,6.996614,-0.005498,-0.038943,0.022144,0
26.469,-0.495912,9.381062,8.369495,0.024893,-0.067348,-0.025656,0
26.489,-1.001994,9.509077,5.794220,0.002291,-0.089034,-0.031612,0
26.510,-0.108275,8.961719,3.915854,0.160352,-0.043830,-0.021991,0
26.531,-1.060619,7.678568,2.501098,-0.019700,-0.053756,0.016035,0
26.549,-0.777069,7.934001,3.393023,0.002596,-0.020159,0.036041,0
26.571,-0.917049,8.440681,5.537590,-0.165086,-0.051007,0.043830,0
26.590,-0.652044,7.363314,2.166103,0.118508,-0.007789,0.041692,0
26.616,-0.766900,8.282756,6.454041,-0.105221,-0.020006,0.065057,0
26.639,-0.789631,8.283952,4.444070,0.060628,0.005192,0.043371,0
26.651,-1.060020,9.476774,5.715855,0.003207,0.018631,0.070555,0
26.673,-0.613161,8.017751,3.510271,0.000458,0.053756,0.105374,0
26.696,-0.487538,9.137591,8.732606,-0.042913,0.073762,0.134238,0
26.714,-1.996212,7.753344,-1.350748,0.051160,0.134390,0.147982,0
26.735,-0.708874,7.919046,8.030911,-0.082925,0.114232,0.179442,0
26.756,-1.301097,9.699306,7.375278,0.102625,0.197462,0.172111,0
26.774,-0.995414,7.822735,5.091927,0.184939,0.189063,0.162948,0
26.792,-1.188635,8.088937,4.701298,0.069639,0.175013,0.188757,0
26.815,-1.063011,7.716853,-0.765105,0.096517,0.163864,0.169210,0
26.834,-1.402792,8.810971,4.189833,-0.148898,0.122173,0.157298,0
26.858,-1.369293,9.308679,3.400201,-1.119104,-0.045051,0.154243,0
26.877,-0.523430,11.121840,14.648262,1.010065,0.211665,0.165392,0
26.899,0.126820,5.839086,-1.694118,0.359188,0.180358,0.168751,0
26.917,-0.284148,7.240681,11.057832,-0.719904,0.146760,0.150578,0
26.940,-1.070788,8.236693,-4.517649,0.715934,0.140957,0.083994,0
26.956,-0.605982,8.711669,10.858031,-0.360563,0.080023,0.094989,0
26.978,-0.305683,8.115258,3.206382,-0.932791,0.112246,0.105680,0
26.997,-0.346361,7.571489,5.007580,-0.274584,0.094989,0.085216,0
27.019,-0.600598,10.782657,4.889135,0.016035,0.152105,0.088423,0
27.039,-0.588036,8.920443,4.098905,-0.157145,0.084147,0.050244,0
27.060,0.005982,7.348957,4.306482,-0.151953,0.076358,0.021686,0
27.079,0.315254,8.099107,4.421338,0.039553,0.112399,-0.031918,0
27.101,-0.500100,7.084549,3.041278,0.036346,0.100335,-0.043982,0
27.120,-0.489332,10.892727,4.965705,0.188299,0.111483,-0.081550,0
27.140,-0.686740,8.840283,4.872983,0.136070,0.050854,-0.099113,0
27.161,0.309871,9.129815,4.916652,0.146913,0.068722,-0.121715,0
27.182,-0.451645,8.464012,8.387442,-0.123395,-0.005498,-0.145386,0
27.202,-0.344566,7.477571,2.980859,0.226784,0.093615,-0.113468,0
27.220,-0.346361,7.147361,4.821537,-0.102014,0.025504,-0.098960,0
27.242,-0.274576,10.692926,-3.526422,0.424398,0.036346,-0.120646,0
27.261,-0.380459,9.070593,11.282757,-0.797484,0.021686,-0.109192,0
27.283,-1.210768,8.127222,-0.778864,0.099724,0.076511,-0.085521,0
27.302,-1.816152,7.864012,10.477572,0.011454,0.101709,-0.079565,0
27.325,-1.211366,7.335796,1.587638,0.040164,0.085979,-0.063683,0
27.343,-1.230509,9.915857,7.254440,-0.050549,0.053756,-0.078954,0
27.368,-0.786042,8.852247,2.127219,0.057116,0.088728,-0.084147,0
27.383,-0.832702,8.502895,5.818747,-0.011606,0.082009,-0.087048,0
27.406,-1.257428,8.253444,4.214359,-0.034208,0.052687,-0.079260,0
27.425,-1.052842,7.747362,4.854439,0.015882,0.035430,-0.080481,0
27.443,-1.441077,8.440084,5.646463,0.018021,0.021228,-0.136681,0
27.465,-0.865005,7.369894,3.191427,0.031307,0.005803,-0.105985,0
27.485,-0.122632,9.048459,5.620142,-0.148898,-0.067653,-0.142790,0
27.508,-0.969691,8.650054,4.258028,0.086590,-0.027031,-0.193186,0
27.526,-0.657428,9.322437,4.027719,-0.048106,-0.109803,-0.212276,0
27.548,-0.933201,7.828718,3.942774,-0.030238,-0.138972,-0.249386,0
27.567,-0.687936,8.973683,4.466204,0.083536,-0.139583,-0.256869,0
27.589,-1.144367,8.221739,5.183452,-0.014203,-0.196698,-0.281609,0
27.609,-0.939781,7.676175,4.840082,0.010385,-0.186619,-0.267559,0
27.629,-1.124627,9.157332,6.663413,-0.006109,-0.222507,-0.256258,0
27.649,-1.225125,8.444271,3.164508,0.077427,-0.211359,-0.245415,0
27.669,-1.263410,9.495318,4.324429,0.161116,-0.197462,-0.233198,0
27.689,-1.145564,8.746964,5.916852,-0.081245,-0.228463,-0.196546,0
27.710,-1.064208,7.527820,3.814159,0.107818,-0.170126,-0.181580,0
27.730,-1.236491,9.081959,5.467600,-0.025504,-0.213192,-0.135459,0
27.749,-1.047458,8.011768,1.447658,0.122020,-0.168293,-0.143095,0
27.771,-1.115055,9.123833,7.897511,-0.118202,-0.213955,-0.107970,0
27.790,-1.394417,7.249654,5.657231,0.151800,-0.142484,-0.113163,0
27.816,-1.916651,9.209376,4.864608,0.098502,-0.168904,-0.082467,0
27.832,-0.869193,8.686544,5.501698,0.145386,-0.143401,-0.028252,0
27.853,-1.950150,7.950751,4.135396,0.108734,-0.116370,-0.020464,0
27.872,-1.433899,8.478369,2.245664,0.006872,-0.126144,0.039248,0
27.893,-1.397408,8.946166,3.131008,0.016188,-0.081245,0.100029,0
27.913,-0.726820,8.355737,7.733005,-0.016799,-0.035888,0.145080,0
27.935,-2.309074,8.509476,1.291526,0.191201,0.071471,0.162185,0
27.953,-0.323629,9.729217,6.443273,-0.139277,0.034972,0.252287,0
27.976,-1.015155,8.047063,0.974477,-0.008858,0.131794,0.286190,0
27.994,-1.164108,9.426525,5.787042,-0.187230,0.148135,0.284816,0
28.013,-1.876571,8.385049,3.738187,0.004887,0.232739,0.306654,0
28.035,-1.064806,8.222935,7.389036,-0.100029,0.193033,0.297186,0
28.054,-1.308874,7.800602,4.379464,-0.029016,0.162490,0.231518,0
28.076,-1.399801,7.214959,6.806384,-0.013439,0.080787,0.159436,0
28.097,-1.172483,8.510074,3.021537,0.003512,-0.003971,0.085521,0
28.117,-0.756730,8.087741,7.365706,-0.040317,-0.089339,-0.001680,0
28.138,-0.230309,8.292327,4.336991,-0.010996,-0.068417,0.016951,0
28.156,-0.011366,8.080562,4.272385,0.044593,-0.052993,0.026420,0
28.178,-0.762712,9.200403,6.300302,-0.071624,-0.069791,0.039248,0
28.199,-0.853041,8.012965,2.873182,-0.124616,-0.036041,0.057116,0
28.221,-1.024128,9.253045,7.798807,-0.038026,-0.001374,0.067501,0
28.240,-0.619741,7.068996,0.452842,0.016799,0.029322,0.106596,0
28.258,-0.897907,8.659625,9.591630,0.204029,0.149967,0.142484,0
28.277,-0.989432,8.868998,0.342174,0.052534,0.120493,0.171653,0
28.301,-0.331406,8.779266,7.492526,0.003207,0.166461,0.164781,0
28.318,-0.540778,7.822137,2.912065,0.058796,0.173333,0.152563,0
28.341,0.078365,8.675776,4.916652,0.182496,0.215635,0.131641,0
28.359,-0.622732,7.995018,6.445068,-0.019548,0.142484,0.095448,0
28.381,-0.264407,8.021339,4.529613,-0.015882,0.091019,0.044899,0
28.403,-0.445065,9.584451,4.027719,0.087659,0.078343,-0.036194,0
28.422,-0.040678,9.018549,3.776472,-0.008094,0.001833,-0.092088,0
28.445,-0.042473,7.021140,3.681956,-0.041539,-0.069791,-0.152869,0
28.461,-0.988236,8.603992,6.898508,-0.128587,-0.129809,-0.207541,0
28.482,-1.164108,8.129017,3.907479,0.000916,-0.101709,-0.160505,0
28.505,-1.545763,9.159127,4.031906,0.078191,-0.071777,-0.147218,0
28.522,-1.045065,9.080762,7.052247,0.032070,-0.045815,-0.079107,0
28.542,-1.370489,7.337591,2.557329,0.070860,-0.008858,-0.052993,0
28.563,-1.971686,9.156734,6.433104,0.030849,0.028405,0.006261,0
28.582,-0.767498,8.520244,2.568097,0.016341,0.049327,0.055741,0
28.608,-0.911665,9.669994,2.696711,0.166002,0.133474,0.085827,0
28.623,-0.344566,8.255239,5.567500,-0.031307,0.135459,0.125075,0
28.646,-0.732204,9.217153,3.235694,0.017410,0.171348,0.111636,0
28.664,-0.098106,7.962716,6.391229,-0.130572,0.145233,0.108581,0
28.686,-0.466002,8.562716,5.767899,-0.070555,0.158519,0.077427,0
28.705,0.163908,9.064610,3.095714,0.039553,0.179900,0.046884,0
28.724,-0.395414,8.111071,7.600203,-0.212123,0.093920,0.000000,0
28.746,-0.637089,7.087541,0.427717,0.012217,0.097280,-0.056810,0
28.765,-0.823729,8.308478,6.142376,-0.015730,0.067042,-0.118660,0
28.785,-0.792024,9.292527,6.112465,-0.001222,0.021228,-0.139277,0
28.805,-0.383450,7.710273,3.626921,0.095142,-0.022755,-0.219911,0
28.829,-0.235095,7.450652,4.797609,0.089492,-0.065973,-0.234725,0
28.847,-1.316052,9.843474,8.527422,-0.059407,-0.125227,-0.292910,0
28.869,-0.571885,7.082755,0.343968,0.075747,-0.144622,-0.266795,0
28.888,-0.491725,9.756734,10.381859,-0.104000,-0.184176,-0.280234,0
28.909,-1.108475,7.315457,-0.358325,0.161421,-0.162337,-0.289855,0
28.929,-0.500100,8.985647,8.404191,-0.184023,-0.229380,-0.289550,0
28.951,-2.005784,7.990831,2.501696,0.008094,-0.206778,-0.280387,0
28.969,-0.565304,7.923234,6.113064,-0.048106,-0.224493,-0.255036,0
28.991,-1.007378,9.281160,5.426922,0.092699,-0.187230,-0.256716,0
29.010,-1.027717,9.068199,3.757330,0.036499,-0.179289,-0.206472,0
29.029,-0.976870,7.999206,4.455436,-0.092241,-0.205251,-0.192575,0
29.051,-1.339981,8.645866,3.988237,-0.014813,-0.177609,-0.179747,0
29.071,-2.142174,9.098110,4.225725,-0.066126,-0.164475,-0.136681,0
29.096,-2.096113,9.107681,4.444668,0.109650,-0.135459,-0.116522,0
29.112,-1.265803,7.281359,4.923233,0.020769,-0.131641,-0.067042,0
29.132,-2.106880,9.590433,4.469793,0.065515,-0.123242,-0.063835,0
29.151,-1.435095,8.301300,5.320441,0.045204,-0.114079,-0.009468,0
29.174,-1.218545,8.434700,6.462416,0.059407,-0.109956,0.015272,0
29.197,-1.336990,8.603992,0.436092,-0.018326,-0.101251,0.024282,0
29.215,-0.760918,8.890532,8.153543,-0.133169,-0.087048,0.085063,0
29.233,-0.686740,7.756933,-0.081954,0.167682,0.011912,0.087201,0
29.256,-0.800399,8.812167,8.673384,-0.244804,-0.065515,0.076358,0
29.275,-1.076770,8.545966,5.565107,0.052076,0.017562,0.098655,0
29.296,-0.923630,8.118249,3.952345,-0.008247,-0.016341,0.078343,0
29.315,-1.692922,7.702496,5.230112,-0.024893,-0.031918,0.054062,0
29.334,-1.022334,9.007781,4.095316,0.103389,-0.009927,0.054825,0
29.356,-0.902094,7.982456,4.514658,0.056810,-0.026420,0.056810,0
29.378,-1.088734,8.629117,5.304888,-0.057269,-0.056200,0.038484,0
29.399,-1.739582,8.902496,3.925426,0.109192,-0.012370,0.051771,0
29.417,-1.327418,8.539386,4.335794,-0.061697,-0.059254,0.070708,0
29.437,-0.999602,8.274979,4.369294,0.056810,-0.033445,0.061697,0
29.459,-1.515853,8.862417,4.535595,-0.074526,-0.074220,0.049175,0
29.477,-1.060020,8.886943,3.936791,0.052229,-0.036805,0.071929,0
29.501,-1.119243,8.271390,7.810173,0.058338,-0.029780,0.059559,0
29.520,-0.677767,7.781459,2.826522,0.166155,0.004123,0.072082,0
29.538,-0.183051,8.045268,6.036493,-0.106138,-0.063072,0.081245,0
29.557,-1.715056,9.221340,2.992225,-0.052229,-0.020159,0.099876,0
29.579,-0.370888,7.843673,6.689734,0.048106,0.044135,0.109956,0
29.599,-0.755534,8.344371,4.093521,-0.022755,0.043524,0.125533,0
29.620,-0.398405,8.389834,4.682754,0.095295,0.098197,0.147829,0
29.639,-0.856631,8.543573,5.018347,-0.128282,0.050854,0.141721,0
29.661,-0.793819,8.521440,5.396413,0.001527,0.109498,0.140041,0
29.680,-1.049253,8.791828,6.953543,-0.021991,0.101251,0.143248,0
29.703,-0.715454,7.266404,1.249652,0.115453,0.132252,0.122784,0
29.721,-0.766900,7.839485,7.648658,-0.227394,0.035277,0.074678,0
29.741,-0.724427,9.480962,2.805584,-0.000153,0.065057,0.082925,0
29.764,-0.086740,8.772686,5.417949,0.010843,0.045815,0.006720,0
29.782,-1.308276,8.361719,3.547958,0.126602,0.082467,0.024129,0
29.802,-0.365504,8.100303,6.020940,-0.000458,0.029322,-0.006261,0
29.823,-0.882952,8.810373,3.993621,-0.054214,0.013744,-0.031154,0
29.844,-0.427119,8.866604,5.079364,0.005345,-0.000305,-0.021991,0
29.863,-0.717249,8.387442,1.717448,0.011148,-0.018784,-0.079565,0
29.886,-0.530608,8.514859,8.345567,-0.008094,-0.004123,-0.070708,0
29.905,-0.631705,8.777472,3.669992,0.057116,0.004734,-0.054214,0
29.926,-0.437887,8.862417,2.937190,0.231670,0.056810,-0.073609,0
29.945,-0.418744,9.500104,5.163711,0.000916,-0.009163,-0.080940,0
29.964,-0.212363,7.310073,2.958127,0.040470,0.010996,-0.076816,0
29.988,-0.344566,8.569894,7.162316,0.003971,-0.027642,-0.102473,0
30.005,-0.342174,8.130812,0.635893,0.191506,-0.000764,-0.144164,0
30.028,-0.798006,9.723833,2.621935,0.024435,-0.051924,-0.157450,0
30.046,-0.649053,7.966305,5.810371,-0.179747,-0.106290,-0.175624,0
30.071,-1.063610,7.998608,4.013362,-0.065668,-0.083688,-0.151036,0
30.088,-1.010968,9.176475,6.519245,0.027642,-0.066890,-0.153327,0
30.110,-0.554537,9.412766,4.246662,0.001222,-0.063835,-0.154702,0
30.128,-1.658226,8.516654,3.655635,-0.050091,-0.092851,-0.151800,0
30.149,-0.783649,9.489935,7.263413,-0.068417,-0.101404,-0.129961,0
30.169,-1.292124,7.846066,-0.453440,0.053298,-0.063530,-0.135154,0
30.190,-1.239482,8.309675,8.943174,-0.147524,-0.080787,-0.106901,0
30.211,-1.500898,9.147761,3.093322,0.206930,0.017410,-0.080787,0
30.231,-1.565504,9.166306,5.449055,-0.016951,-0.023060,-0.040317,0
30.250,-1.761117,8.279764,2.964707,-0.192575,-0.061545,0.019853,0
30.275,-1.544567,7.852646,6.241678,0.018631,0.012981,-0.008399,0
30.291,-0.645464,7.826324,6.336195,-0.103847,-0.023824,0.044288,0
30.312,-1.682752,8.977272,3.318247,0.023366,-0.013744,-0.023824,0
30.335,-1.660619,8.332407,6.418747,-0.109192,-0.083688,-0.011301,0
30.354,-1.043271,6.897910,2.756532,0.037110,-0.079565,-0.041081,0
30.372,-0.390030,9.433105,6.854839,-0.083841,-0.130878,-0.048106,0
30.393,-1.284946,9.092726,2.851048,0.222202,-0.058185,-0.093310,0
30.418,-1.079761,7.835896,3.413960,-0.061392,-0.219606,-0.116217,0
30.436,-1.348356,9.129216,4.438088,0.144928,-0.175165,-0.130725,0
30.454,-1.446461,8.351549,4.890331,0.055589,-0.213039,-0.107818,0
30.473,-1.500300,10.242477,6.006583,-0.099571,-0.260076,-0.093004,0
30.496,-0.862613,7.484749,2.359921,0.111177,-0.227700,-0.075747,0
30.515,-1.250250,8.818748,5.233701,-0.132863,-0.273209,-0.067653,0
30.536,-1.629512,8.977272,3.352943,0.331700,-0.147066,-0.029474,0
30.558,-0.733998,9.032308,6.871588,-0.027336,-0.199142,0.033139,0
30.576,-0.974477,7.982456,4.598407,0.245109,-0.116828,0.043066,0
30.595,-0.782453,7.974082,4.968098,0.113926,-0.115606,0.081856,0
30.618,-0.895514,7.968100,3.148955,-0.080023,-0.140957,0.116217,0
30.640,-1.332802,9.271589,4.572684,0.072387,-0.082161,0.105832,0
30.658,-0.969691,9.330812,6.668199,0.007025,-0.069333,0.180205,0
30.677,-0.728615,7.312466,1.527219,0.020769,-0.047800,0.202502,0
30.700,-0.453440,8.631510,4.872385,0.014508,-0.004581,0.172722,0
30.718,-1.050449,9.288340,6.353542,0.207694,0.084605,0.245109,0
30.741,-0.895514,7.530811,1.902294,-0.118508,0.012828,0.254731,0
30.761,-0.490529,9.553345,7.910073,0.020311,0.078038,0.231518,0
30.779,-0.738784,7.247860,-0.543171,0.025504,0.074220,0.253051,0
30.801,-0.181256,9.221340,6.437889,0.059865,0.103847,0.207847,0
30.820,-1.093520,8.776874,7.885547,0.361632,0.193644,0.209985,0
30.843,0.033500,6.601200,0.832702,-0.779463,-0.048258,0.183870,0
30.861,-0.756730,9.204591,8.219346,0.530536,0.274736,0.153785,0
30.880,-0.117847,7.524231,4.207181,-0.096822,0.091172,0.193033,0
30.903,-0.537787,8.751151,7.051648,0.012217,0.102625,0.119119,0
30.921,-0.451645,7.859226,2.162513,-0.025351,0.075289,0.142179,0
30.943,-0.209970,7.745567,7.153343,0.038332,0.078191,0.113774,0
30.962,-0.783051,8.843274,2.592623,-0.136070,0.019700,0.094379,0
30.983,-0.655633,8.760722,8.204988,0.051313,0.059865,0.066737,0
31.004,-1.042673,7.268797,4.216752,-0.090561,-0.011759,0.062308,0
31.024,-1.318445,10.179666,4.302295,-0.085979,-0.023671,0.048716,0
31.045,-0.028714,5.965905,4.684548,-0.119119,-0.070249,0.027183,0
31.064,-1.037887,10.001999,3.019144,0.120951,-0.021228,0.030696,0
31.086,0.329611,9.011370,6.610173,-0.056963,-0.050396,0.014661,0
31.105,-0.652642,7.616354,4.522435,0.088117,0.017410,0.021838,0
31.126,-0.449252,8.494520,5.004589,-0.059101,0.003207,0.073609,0
31.149,-0.186042,9.425328,2.737987,0.052382,0.038026,0.042761,0
31.166,0.076570,9.723833,4.831707,0.227853,0.115453,0.082925,0
31.187,-0.413958,7.925627,9.340981,-0.501062,-0.038026,0.064599,0
31.209,-0.680160,7.233503,-0.423530,0.081398,0.060934,0.080634,0
31.230,-0.360718,8.322237,8.347362,-0.165697,0.045815,0.066890,0
31.249,0.092124,8.974879,2.493919,0.061239,0.088575,0.092546,0
31.268,-0.762712,8.017751,7.663613,0.043677,0.102320,0.039859,0
31.289,0.836291,9.577870,4.983651,0.079107,0.108581,0.078802,0
31.309,-0.917049,8.680562,2.736193,0.099876,0.114690,0.009774,0
31.331,0.772283,7.509275,6.679564,-0.006567,0.074526,0.042302,0
31.349,0.098106,8.476574,2.246262,0.162185,0.141262,-0.009010,0
31.370,0.488136,8.333005,5.484350,-0.028711,0.102320,-0.009010,0
31.390,0.636491,8.201998,4.609773,-0.006109,0.098655,-0.027031,0
31.409,0.105882,10.031909,5.679365,0.000000,0.120493,-0.075289,0
31.431,0.592224,8.171490,5.993423,0.101556,0.134696,-0.074067,0
31.450,0.315853,7.145566,3.751946,0.107207,0.131030,-0.121562,0
31.475,-0.712463,8.746365,4.018147,0.203113,0.094989,-0.160199,0
31.490,-1.313660,9.969695,4.911867,-0.308029,-0.026420,-0.206930,0
31.513,-0.786640,6.674779,4.173083,-0.061239,0.026878,-0.148898,0
31.531,-2.246861,7.795218,7.089933,-0.146149,-0.023976,-0.184787,0
31.553,-1.051646,9.815957,3.210570,0.053603,-0.000764,-0.126449,0
31.575,-1.810170,8.500503,5.737988,-0.036194,-0.015119,-0.132558,0
31.594,-2.287539,8.344969,7.910672,0.078496,0.041539,-0.091019,0
31.613,-2.176870,7.773683,0.195613,0.056200,0.049785,-0.008399,0
31.635,-1.538585,8.764910,5.705686,-0.025809,0.042913,0.025504,0
31.654,-1.192224,9.669994,4.246662,-0.057574,0.109039,0.084147,0
31.677,-1.062413,6.383452,5.776872,-0.109803,0.104458,0.114690,0
31.695,-1.001396,9.135797,5.518447,0.150273,0.194408,0.133169,0
31.714,-1.916053,9.559326,3.696911,0.035736,0.140499,0.103389,0
31.736,-1.176072,8.118249,4.005585,-0.046578,0.144011,0.106749,0
31.758,-0.473779,7.188039,7.780861,-0.165697,0.075900,0.086285,0
31.779,-0.539581,8.699107,1.257428,0.012828,0.083688,0.013744,0
31.798,-0.740579,9.435498,8.272586,-0.178067,0.089644,0.005040,0
31.817,1.052842,7.417152,5.082953,-0.010079,0.103694,0.028711,0
31.839,-0.376870,8.876774,4.978866,-0.083841,-0.034819,-0.140652,0
31.861,0.034696,8.721240,4.325027,-0.040623,-0.053909,-0.191201,0
31.879,0.842872,7.320243,2.522035,0.146455,-0.058032,-0.207999,0
31.898,-0.662812,9.540782,8.718847,-0.264352,-0.123700,-0.256716,0
31.918,-0.549751,8.950952,3.019742,0.043371,-0.086896,-0.237016,0
31.941,0.055633,6.753144,5.497510,-0.015882,-0.209679,-0.315359,0
31.959,-0.899103,9.239286,1.975275,0.087506,-0.195782,-0.337350,0
31.980,-0.517448,9.585648,4.001398,0.243430,-0.138514,-0.265115,0
32.002,-1.725823,9.531211,8.053044,-0.195935,-0.252287,-0.254731,0
32.020,-0.914058,6.854240,3.543770,0.005498,-0.189826,-0.186619,0
32.043,-0.499502,9.621540,2.852843,0.284358,-0.068570,-0.169210,0
32.062,-1.046262,8.526823,4.671388,-0.088117,-0.084910,-0.054978,0
32.083,-1.076770,8.468798,9.154940,-0.071777,-0.076664,-0.047342,0
32.102,-1.110270,7.951350,0.986441,0.057269,-0.076664,-0.023671,0
32.121,-0.556331,7.986045,6.844071,0.056352,0.005345,-0.005040,0
32.144,-1.741377,9.451052,5.701498,-0.005192,-0.031001,-0.027031,0
32.164,0.247657,6.355337,5.410172,-0.087659,-0.051160,0.058032,0
32.184,-1.562513,8.858828,5.149354,0.024893,-0.019090,-0.037263,0
32.205,-0.403789,8.489735,2.886342,0.182343,0.009010,0.004581,0
32.225,-0.619741,8.206783,5.957530,0.004429,-0.033750,-0.031460,0
32.248,-1.331008,9.341579,7.043872,0.025504,-0.033750,-0.003512,0
32.266,-0.932603,7.162316,5.576473,0.102778,-0.072540,-0.037874,0
32.285,-0.853639,8.783454,4.908875,0.067195,-0.071318,-0.022144,0
32.308,-1.173081,8.301300,-1.746162,0.143553,-0.093920,-0.067195,0
32.329,-0.794417,9.589237,10.737193,-0.275347,-0.116217,-0.020617,0
32.348,0.215952,8.445468,5.948557,0.376445,-0.013439,-0.017410,0
32.371,-0.542573,6.372685,0.770489,-0.145386,-0.118202,-0.025198,0
32.389,-1.242473,10.931012,5.911469,-0.128740,-0.075289,-0.014050,0
32.411,-1.119243,7.995018,4.460221,-0.111636,-0.065821,0.009774,0
32.430,-0.865005,7.990831,6.748358,-0.008247,-0.064294,0.000764,0
32.449,-0.675972,8.732008,3.728018,0.089644,-0.056352,-0.006720,0
32.471,-0.623330,8.359924,4.112066,-0.019548,-0.065973,-0.005650,0
32.489,-1.155135,8.596813,5.419743,0.052534,-0.033903,0.019700,0
32.511,-0.747159,8.292327,6.047261,-0.017257,-0.018021,0.031612,0
32.532,-0.966700,7.802995,3.706482,0.137292,0.010385,0.044593,0
32.551,-1.394417,9.669396,4.350152,0.040470,-0.006109,0.047953,0
32.573,-0.521037,8.723633,5.620142,-0.055131,0.004887,0.075595,0
32.592,-0.960120,7.846663,1.974079,0.010232,0.009621,0.061392,0
32.613,-0.550947,8.484949,7.195816,0.075136,0.014966,0.038026,0
32.632,-0.073579,8.912068,2.730211,0.053298,0.041081,0.063072,0
32.655,0.199202,8.752347,3.329015,0.145233,0.049175,0.043371,0
32.674,0.361316,9.212965,8.818150,0.123395,0.086743,-0.005498,0
32.695,-0.357727,7.686345,4.431508,0.016799,0.056352,-0.003665,0
32.715,-0.589233,8.220542,2.253441,0.107207,0.044746,-0.055741,0
32.736,-1.100698,8.927621,6.512067,-0.243124,0.013744,-0.032529,0
32.758,-0.823729,8.752347,4.843073,0.072387,0.055741,-0.062155,0
32.775,-1.612762,6.854839,5.554938,-0.136986,-0.035583,-0.077122,0
32.798,-0.949352,8.746365,5.822934,-0.067195,-0.014966,-0.033750,0
32.816,-1.685744,7.686943,3.578466,0.025351,-0.011759,-0.061545,0
32.836,-1.627119,9.736994,6.708877,-0.106138,-0.032223,-0.030696,0
32.857,-1.554736,7.762317,3.077170,0.095600,-0.005192,-0.020617,0
32.876,-2.008176,7.636095,5.864808,-0.074373,-0.043982,0.003054,0
32.898,-1.571486,9.002995,4.077370,-0.025504,-0.033903,0.003207,0
32.917,-1.458425,8.347362,6.372087,-0.071471,-0.034667,0.039859,0
32.939,-1.312463,7.878967,4.448855,0.033750,-0.035430,0.034819,0
32.958,-1.028914,9.340981,5.755337,0.007789,-0.046426,0.038332,0
32.980,-2.361118,8.787642,2.722434,0.070860,-0.044440,0.046273,0
33.003,-0.726820,8.366505,4.923233,0.033292,-0.035583,0.081550,0
33.019,-3.345166,9.919446,1.523032,0.008858,-0.022449,0.082161,0
33.042,1.196411,6.370890,9.408579,-0.078496,-0.064904,0.144164,0
33.060,-0.301496,8.785249,0.717249,0.007330,-0.013897,0.084910,0
33.079,0.081356,9.364909,9.051450,-0.090408,0.035277,0.110567,0
33.102,-0.634098,7.804789,0.109472,0.180663,0.034514,0.059712,0
33.120,-0.044267,9.184252,9.174082,-0.120188,-0.029474,0.048564,0
33.142,-0.956531,8.278568,2.491527,0.298102,0.036041,0.031307,0
33.161,0.598206,7.355537,-0.806979,0.062766,0.009774,0.076053,0
33.183,-1.329811,10.403993,9.909875,-0.105374,0.024282,0.046884,0
33.202,-0.011366,6.587441,2.595016,-0.211665,-0.020769,0.020922,0
33.224,-0.479761,9.314062,9.129815,-0.215635,0.022449,0.010690,0
33.244,-1.823331,9.583255,0.344566,0.107818,0.064294,0.002902,0
33.263,-0.199202,8.374281,7.456634,0.033903,0.020311,0.037110,0
33.285,-1.692324,8.807382,4.983053,0.124464,0.043677,-0.022449,0
33.305,-0.337388,7.753942,3.744767,0.060628,-0.014966,-0.018173,0
33.325,-0.732204,9.324830,5.805586,0.030543,-0.028558,-0.036805,0
33.344,-0.707079,8.251649,3.879364,0.048258,-0.019853,-0.046731,0
33.366,-0.102891,8.242676,8.052446,-0.039401,-0.057116,-0.053756,0
33.385,-0.412762,7.843673,2.928815,0.111636,-0.020464,-0.066890,0
33.410,-0.486939,9.986445,5.350351,0.077885,-0.043677,-0.057727,0
33.426,-0.339781,7.928618,5.292923,-0.067042,-0.049785,-0.055589,0
33.449,-0.963111,8.132008,8.456235,-0.005498,-0.049785,-0.076816,0
33.470,-0.373879,8.061419,3.829713,0.260992,-0.003054,-0.067959,0
33.488,-0.713659,9.552148,7.692925,-0.031154,-0.030543,-0.017868,0
33.509,-0.879961,8.715259,2.917449,0.220217,0.015119,-0.028863,0
33.529,-1.576272,9.671191,7.619944,-0.094531,-0.053298,-0.013592,0
33.549,0.078963,7.100103,4.574479,0.238085,-0.021228,-0.043982,0
33.571,-0.874577,9.016754,-1.743770,0.257938,-0.022144,-0.069486,0
33.589,-1.188036,8.954540,6.877571,-0.096058,-0.058643,-0.059559,0
33.609,-0.026919,7.057631,2.465804,0.258549,0.005192,-0.046884,0
33.629,-0.665205,8.928220,7.818548,0.313526,-0.037568,-0.052687,0
33.652,-1.284348,7.490133,-0.463011,-0.009163,-0.049785,-0.061545,0
33.672,-0.967299,10.453644,10.167702,-0.193797,-0.048869,0.006109,0
33.690,-0.914058,6.963712,-0.985245,0.173027,0.023060,-0.005192,0
33.713,-1.214956,9.795019,12.223136,-0.124158,-0.015882,0.034514,0
33.733,-0.625125,7.817351,-1.364507,0.860556,-0.005956,0.048258,0
33.755,-0.897308,7.709674,-1.645664,0.074526,-0.013744,-0.001985,0
33.773,-1.198804,10.353146,9.986445,-0.675616,-0.082009,0.004887,0
33.794,-0.891326,7.523633,3.183052,0.536645,0.130267,0.069791,0
33.813,-0.049651,7.800004,-1.025324,0.387746,-0.037263,0.084299,0
33.835,-0.851247,10.279566,10.167702,0.680809,0.068264,0.019700,0
33.854,-0.622134,8.175078,-0.857229,-0.069639,-0.007025,0.017715,0
33.874,-1.229313,7.472785,11.852847,-1.041066,-0.014355,-0.007178,0
33.896,-0.173480,8.428718,-1.086940,0.050244,-0.004276,0.020769,0
33.915,-0.609572,8.826525,11.891132,0.764345,0.081550,0.050549,0
33.939,0.202792,5.944370,-1.332802,0.058338,0.026573,0.028252,0
33.957,-1.310669,10.004392,13.772489,-0.961196,-0.084452,-0.011606,0
33.978,-0.759123,7.237690,-3.288337,0.374155,0.056505,0.067195,0
33.996,-0.070588,9.432507,9.136395,-0.542753,0.048716,0.004887,0
34.018,-0.842274,7.079764,-0.020339,0.218995,0.117439,-0.001374,0
34.038,-0.738186,11.106286,6.701100,-0.068875,0.042608,-0.016951,0
34.057,-0.922433,5.443073,9.314660,-0.260381,-0.014508,-0.021686,0
34.079,-1.161117,7.004390,4.068397,-0.055436,-0.006261,-0.051618,0
34.098,-0.772882,10.228719,1.621736,0.288786,0.026114,-0.083841,0
34.117,-1.000200,7.647461,5.879764,-0.056963,-0.058338,-0.125380,0
34.140,-0.528814,7.162915,7.295118,-0.020464,-0.118202,-0.156534,0
34.160,-0.279362,8.553144,1.923829,0.160963,-0.153938,-0.200975,0
34.179,-0.957129,10.091131,5.714060,0.049175,-0.148898,-0.201433,0
34.202,-0.418146,7.913663,4.881957,-0.181274,-0.199447,-0.154243,0
34.221,-0.777069,9.198010,3.525226,0.087201,-0.204945,-0.216857,0
34.240,-0.552144,7.302895,6.466603,-0.069639,-0.244804,-0.221133,0
34.262,-1.601995,10.487144,-0.752543,0.312305,-0.168446,-0.186772,0
34.281,-1.409373,7.806584,6.626922,-0.295506,-0.273209,-0.115453,0
34.300,-0.923630,8.153543,4.774878,-0.151189,-0.225715,-0.088117,0
34.322,-1.435694,8.446066,4.400999,-0.128282,-0.197004,-0.046426,0
34.341,-1.965106,8.662018,6.314659,-0.153174,-0.149204,0.053603,0
34.361,-0.923630,9.117252,3.223132,0.087965,-0.105680,0.054062,0
34.384,-0.950549,8.001000,7.816753,-0.156229,-0.103083,0.092241,0
34.402,-1.852045,8.837293,2.743371,0.099418,0.000764,0.126449,0
34.424,-0.815354,8.425129,7.293921,-0.020617,-0.038637,0.166308,0
34.444,-1.656431,7.805387,-1.252643,0.142942,0.003207,0.175318,0
34.462,-0.909871,8.676973,9.882358,-0.303142,-0.049175,0.172722,0
34.484,-1.096511,9.346365,2.760121,0.045509,-0.016799,0.186772,0
34.505,-1.257428,8.450253,5.227719,0.024282,-0.027183,0.152716,0
34.525,-0.276371,8.146963,4.696513,-0.025351,-0.018784,0.168904,0
34.548,-0.831506,8.041080,4.845466,0.156229,0.000764,0.131336,0
34.565,-1.293321,9.340384,4.754539,-0.032987,-0.035888,0.168599,0
34.589,-0.851247,6.919445,2.809174,-0.091630,-0.039859,0.182496,0
34.606,-1.001396,8.877970,4.013362,-0.050549,-0.041539,0.163712,0
34.625,-0.425922,8.259425,7.285547,0.086896,0.000153,0.183565,0
34.648,-0.824926,8.246863,5.527421,-0.033445,-0.023976,0.172875,0
34.666,-1.208375,9.224930,3.330211,0.155618,0.015424,0.180969,0
34.689,-0.775275,8.866006,4.424329,-0.223271,-0.026114,0.230601,0
34.710,-0.055633,7.262815,6.681957,-0.041233,0.043524,0.252745,0
34.729,-0.531207,8.648259,4.264010,0.159130,0.136528,0.241902,0
34.750,-0.899701,8.274381,4.478766,0.007025,0.136070,0.286343,0
34.769,0.007178,8.093124,5.550152,-0.065668,0.148898,0.307265,0
34.790,-0.706481,8.367103,4.886742,-0.074678,0.176540,0.303753,0
34.814,-0.641276,8.230712,5.036891,-0.009468,0.230601,0.315970,0
34.829,-0.337986,9.069994,5.153542,-0.151953,0.221286,0.341626,0
34.854,-0.423530,7.812566,4.421338,-0.034208,0.252898,0.322078,0
34.875,0.060419,7.485347,3.802794,0.154854,0.289397,0.243735,0
34.895,-0.162114,7.929814,9.542577,-0.401033,0.201127,0.218690,0
34.913,-0.733400,8.546564,0.542573,0.153632,0.291230,0.187841,0
34.941,0.562313,8.069795,5.352744,-0.025656,0.174860,0.080634,0
34.953,-0.620339,9.385847,5.642276,-0.070402,0.155312,0.057879,0
34.976,-0.293121,8.098508,4.472186,-0.018937,0.149662,0.053909,0
34.995,-0.579661,9.062816,5.492724,-0.010385,0.142331,0.046120,0
35.017,-0.310469,7.843673,4.724030,0.020006,0.124311,-0.006720,0
35.040,-0.632303,8.761320,4.549354,-0.047189,0.096058,0.008399,0
35.059,-0.238684,8.023134,6.072984,-0.066279,0.097127,0.025504,0
35.077,-0.838684,7.825727,5.647660,0.026267,0.129198,0.014508,0
35.098,-0.254237,8.904291,3.306283,0.095600,0.152105,0.029169,0
35.117,-0.131007,8.700303,5.420940,-0.036652,0.126754,0.032376,0
35.138,-1.440479,9.314660,3.812365,-0.058032,0.135917,-0.002291,0
35.157,0.548555,7.616354,5.639883,-0.032834,0.140041,0.066432,0
35.178,-0.013161,8.502895,3.579663,-0.006567,0.156229,-0.016188,0
35.199,-0.310469,9.218947,7.241280,0.111941,0.205098,0.007483,0
35.220,0.111864,7.810771,0.391825,0.040164,0.143706,-0.011301,0
35.243,0.119641,8.641081,7.412964,0.047800,0.171348,-0.048869,0
35.262,0.157926,8.072187,5.827720,0.010537,0.154854,-0.055436,0
35.281,-0.262612,9.591031,5.906085,-0.027489,0.138361,-0.092546,0
35.303,-0.337986,7.523035,0.677767,0.286190,0.155312,-0.124006,0
35.321,-0.148953,7.839485,10.540383,-0.523053,0.069944,-0.147371,0
35.343,-0.876970,8.440084,1.055833,0.374918,0.162337,-0.175471,0
35.364,-0.354736,7.624131,6.187241,0.258090,0.125075,-0.160810,0
35.382,-1.232902,9.552746,6.743572,0.055283,0.036652,-0.199447,0
35.402,-1.184447,7.929216,3.432504,0.121104,0.027336,-0.193950,0
35.424,-0.402592,8.468798,6.778867,0.023213,-0.016646,-0.195019,0
35.448,-1.887937,9.057432,4.576273,0.087354,-0.016188,-0.194255,0
35.465,-1.490130,8.030313,3.652644,0.096364,-0.013592,-0.167377,0
35.486,-0.329013,7.450652,7.022934,0.093462,-0.010996,-0.123547,0
35.506,-1.182653,10.190434,0.969691,0.170279,0.038179,-0.112857,0
35.525,-0.328415,7.153343,6.198009,-0.169210,-0.017257,-0.068875,0
35.550,-1.518844,9.321838,4.450650,0.031612,0.069639,-0.026420,0
35.566,-0.858425,8.548359,5.419145,-0.027947,0.047647,-0.012065,0
35.589,-2.171487,7.948957,6.284749,-0.153632,0.056505,0.005498,0
35.607,-1.033101,8.189436,4.794020,0.082161,0.111941,0.033445,0
35.629,-1.121636,8.864211,3.321836,-0.012675,0.085368,0.043982,0
35.649,-0.164507,8.882157,0.806979,-0.047647,0.073915,0.027183,0
35.670,-1.268794,8.193623,8.497512,-0.072540,0.109192,-0.008094,0
35.690,0.216550,7.533204,5.977869,0.236252,0.106290,-0.001985,0
35.710,-0.866202,9.419945,7.609176,0.286190,0.039706,-0.113163,0
35.729,-0.162114,8.389236,-0.540778,0.006720,-0.030696,-0.107818,0
35.754,-0.218345,7.631310,5.109873,0.006872,-0.067501,-0.148287,0
35.770,-0.251246,9.608379,8.462217,-0.016799,-0.080329,-0.164475,0
35.790,-0.994218,8.310871,3.103491,0.076511,-0.148440,-0.260992,0
35.809,0.289532,7.618747,3.315256,-0.046120,-0.197767,-0.228311,0
35.831,-1.229911,9.419945,7.057032,0.055741,-0.178525,-0.254425,0
35.850,-1.069592,8.760722,4.771886,0.108581,-0.153632,-0.222202,0
35.875,-0.577268,6.982855,3.190829,0.107970,-0.171042,-0.180816,0
35.890,-1.304088,9.732806,3.270988,-0.122478,-0.189979,-0.153632,0
35.912,-1.456631,8.343174,6.194419,-0.016035,-0.134238,-0.087354,0
35.931,-0.518644,6.954739,5.464011,-0.024282,-0.098655,-0.010537,0
35.953,-1.037887,9.170493,7.165905,-0.123547,-0.099724,-0.038484,0
35.975,-1.624128,8.340781,2.381457,0.177304,-0.027183,0.029016,0
35.994,-0.652044,8.860024,9.896714,-0.142331,-0.043219,0.077274,0
36.013,-1.533201,7.395617,3.707080,0.284968,0.078496,0.065210,0
36.035,-1.091725,8.322237,1.886142,-0.226631,-0.020922,0.154702,0
36.060,-1.149751,9.355338,7.191628,0.129198,0.083230,0.114232,0
36.076,-1.272383,7.237690,2.264807,0.004276,0.047495,0.152563,0
36.094,-1.265205,9.413962,5.742774,-0.103847,0.038179,0.166155,0
36.117,-0.653241,8.642876,6.265606,-0.031460,0.074526,0.163559,0
36.135,-0.370289,7.936395,3.671786,-0.071166,0.104305,0.166155,0
36.157,0.217149,9.099306,2.897708,0.151036,0.146149,0.136986,0
36.176,-0.320040,7.316653,8.057830,0.097127,0.139735,0.132252,0
36.195,-0.580260,8.523832,5.258826,0.285427,0.196240,0.104611,0
36.217,-0.086740,7.785647,3.433701,-0.088881,0.095600,0.085979,0
36.238,-0.832702,8.674581,6.733403,-0.062003,0.081703,0.048106,0
36.260,-0.554537,10.076775,0.934995,0.184023,0.089644,-0.015272,0
36.281,-0.134596,6.870990,8.924630,-0.288175,-0.013439,-0.019395,0
36.300,-1.457229,10.177871,1.319642,0.040470,0.016951,-0.059254,0
36.321,-1.186242,8.507083,5.392824,-0.154854,-0.043066,-0.062614,0
36.342,-0.267996,7.079166,6.123831,-0.156076,-0.031765,-0.036805,0
36.361,-0.900300,8.391629,4.969893,0.096058,0.009316,-0.067653,0
36.381,-0.762712,9.725029,5.136792,0.104611,-0.014508,-0.095142,0
36.401,-1.170689,8.524430,1.630709,0.093462,-0.020006,-0.078649,0
36.421,-1.061815,7.919046,8.311469,0.085063,-0.023671,-0.067042,0
36.441,0.047258,10.277173,3.857828,0.017868,-0.040470,-0.068111,0
36.463,-0.774676,7.090532,3.233302,0.101556,0.018784,-0.046273,0
36.483,-0.657428,8.550154,0.379861,0.003054,-0.004429,-0.021991,0
36.502,-0.456431,9.127422,12.381063,0.025198,0.037415,-0.018479,0
36.524,-0.208774,6.466005,-4.359723,0.560774,0.030238,-0.010079,0
36.544,0.753739,9.936196,14.185849,-1.130253,-0.010537,-0.009927,0
36.565,-1.062413,8.304889,-5.012963,0.787557,0.051465,-0.013592,0
36.584,-0.745364,7.580462,7.248458,-0.801149,0.018326,-0.034361,0
36.605,-1.266401,7.715058,8.950952,0.111636,0.117897,-0.075900,0
36.625,-0.917647,8.120642,2.600998,0.142637,0.051313,-0.050549,0
36.646,-1.701895,8.500503,6.323632,0.174555,0.065515,-0.085827,0
36.668,-1.921437,8.552547,3.708875,-0.162185,-0.064599,-0.082009,0
36.685,-1.968097,8.979067,7.825128,-0.134543,-0.078649,-0.084452,0
36.709,-1.188635,6.854240,2.134398,0.004276,-0.092699,-0.052076,0
36.729,-1.066002,10.591829,7.257431,-0.040470,-0.101709,-0.056658,0
36.749,-1.366302,8.269595,2.966502,0.148746,-0.050091,-0.051618,0
36.769,-0.622732,7.444669,3.638885,-0.378125,-0.153785,0.007178,0
36.791,-0.608375,7.611569,4.749753,-0.212276,-0.102625,-0.016188,0
36.810,-1.091725,10.042677,6.166902,-0.130725,-0.068875,0.013592,0
