Timestamp,AccX,AccY,AccZ,GyroX,GyroY,GyroZ,Label
0.027,-0.679562,8.230113,5.434100,-0.003818,-0.224035,-0.212581,0
0.049,-1.659423,8.507083,6.933802,-0.080176,-0.266184,-0.257785,0
0.060,-1.573879,8.181659,4.323831,0.013439,-0.325285,-0.271529,0
0.079,-1.518844,8.662616,4.329813,-0.103236,-0.386983,-0.308639,0
0.102,-2.239084,8.522038,1.552942,-0.106290,-0.407294,-0.299018,0
0.124,-1.046262,8.702098,8.850452,-0.098502,-0.367435,-0.258549,0
0.146,-1.157528,7.167700,0.943969,0.215177,-0.308334,-0.268322,0
0.164,-2.281556,8.760722,8.518449,0.032070,-0.363159,-0.287106,0
0.186,-1.786242,8.446664,2.179263,0.067653,-0.258243,-0.108123,0
0.204,-2.015953,8.861818,7.555936,-0.095295,-0.304058,-0.120188,0
0.227,-1.164706,8.035697,3.500700,0.075900,-0.238543,-0.066279,0
0.245,-1.768894,8.928818,4.804788,0.047953,-0.244804,-0.079871,0
0.263,-0.608375,8.030911,5.269594,-0.031765,-0.224951,-0.029780,0
0.286,-1.628914,8.800801,4.532006,0.115301,-0.185703,-0.041233,0
0.304,-0.708874,7.568498,5.255835,0.101251,-0.210596,-0.048106,0
0.327,-1.721038,8.537591,7.162915,0.193491,-0.155618,-0.043677,0
0.345,-1.222732,7.767701,2.904887,0.071318,-0.192881,-0.028252,0
0.367,-0.783649,8.119446,6.628717,-0.054825,-0.254883,-0.030543,0
0.387,-2.309672,9.954741,3.631706,0.270308,-0.188910,-0.095600,0
0.409,-1.338784,7.056434,4.301697,0.116370,-0.218384,-0.041844,0
0.428,-1.748555,6.925427,4.287340,-0.018173,-0.250149,-0.027947,0
0.446,-2.325225,8.925228,3.533003,-0.004734,-0.229380,-0.009163,0
0.469,-1.152742,8.276773,6.973283,-0.051313,-0.258243,0.021533,0
0.488,-0.988834,7.855039,7.073184,0.105069,-0.333379,-0.103847,0
0.510,-0.725623,7.508677,4.851448,0.060170,-0.361937,-0.127823,0
0.528,-1.688136,9.359526,5.204988,-0.071013,-0.406225,-0.119424,0
0.550,-1.393819,8.127222,3.994219,0.104152,-0.304822,-0.044288,0
0.570,-1.705484,8.459227,5.601000,-0.045509,-0.306043,-0.016188,0
0.591,-1.887937,8.434700,1.058226,0.177609,-0.222966,0.033445,0
0.610,-1.779662,8.930014,7.893324,0.266337,-0.054978,0.203418,0
0.632,-2.172683,8.647661,2.742175,-0.022297,-0.138972,0.218995,0
0.652,-1.691127,9.326026,7.624729,0.138208,-0.096058,0.232129,0
0.670,-1.146760,5.849853,2.695515,0.239306,-0.074984,0.229227,0
0.692,-2.196013,9.997213,5.193023,-0.010843,-0.001680,0.354760,0
0.713,-2.637489,8.168498,1.019342,0.087965,0.105527,0.442572,0
0.733,-2.328216,9.437292,10.615758,-0.314748,0.050854,0.492815,0
0.753,-1.341177,7.651051,3.555136,0.085368,0.222049,0.560316,0
0.772,-1.597807,8.585447,6.398408,-0.113010,0.156992,0.548862,0
0.793,-0.713659,7.368099,-1.001994,0.088270,0.212581,0.553291,0
0.815,-2.773281,8.816355,7.549953,-0.250607,0.240223,0.590401,0
0.835,-1.406980,9.836894,4.134798,0.074526,0.443182,0.786641,0
0.853,-1.339981,7.505686,4.237091,-0.132100,0.433409,0.733649,0
0.874,-2.015355,10.316056,7.086943,-0.530536,0.364534,0.708145,0
0.893,-0.047258,6.464808,3.527021,0.001222,0.561079,0.809549,0
0.915,-0.745962,7.807182,3.036492,-0.003818,0.541684,0.712574,0
0.934,-1.268794,7.843673,4.278367,-0.069639,0.514348,0.691041,0
0.956,-0.611964,9.253045,4.660022,-0.019853,0.558636,0.689361,0
0.975,-1.462015,9.848260,4.179065,0.029780,0.579100,0.649349,0
0.997,0.577867,8.172088,6.420541,0.031001,0.550542,0.605062,0
1.016,-0.479761,8.249854,6.084948,-0.054367,0.486248,0.524580,0
1.043,0.096311,8.583653,5.061418,0.054978,0.481514,0.481820,0
1.057,-0.159123,7.268797,1.782653,0.055589,0.446084,0.383165,0
1.075,0.008375,9.123235,3.707679,0.075900,0.452651,0.358119,0
1.099,0.978066,8.293523,6.833901,-0.096517,0.417373,0.318108,0
1.117,0.123230,9.995419,5.864808,0.055894,0.420275,0.247248,0
1.140,-0.006580,6.671189,4.944170,-0.044899,0.280692,0.123853,0
1.157,-0.297906,8.467003,7.359126,-0.043982,0.210596,0.081398,0
1.181,-0.419342,8.049456,4.870591,0.092546,0.214414,0.014661,0
1.200,-0.415753,8.898908,2.754139,0.084757,0.195477,0.009316,0
1.221,-0.369093,8.989835,0.716650,0.091630,0.161116,-0.048869,0
1.240,-0.224327,8.478967,5.852246,0.009774,0.150273,-0.038332,0
1.260,-0.291326,7.448857,7.106683,-0.020311,0.129503,-0.049480,0
1.282,-0.428913,8.156534,6.550352,0.074984,0.038943,-0.132863,0
1.301,-1.143769,9.521041,1.201795,0.226631,0.026420,-0.176540,0
1.320,-0.355932,8.972486,3.281158,-0.123700,-0.042913,-0.140499,0
1.342,-0.269791,8.697312,6.957132,-0.051771,0.058490,-0.043524,0
1.361,-1.008575,7.710871,6.676573,0.061392,0.088423,-0.056963,0
1.387,-0.714258,8.255836,5.354539,0.045509,0.064294,-0.023976,0
1.402,-1.093520,8.974281,3.550351,0.097891,0.095448,-0.018631,0
1.424,-0.905085,8.970692,2.394019,-0.017410,0.143553,0.094989,0
1.443,-1.799403,9.482158,9.504889,-0.202349,0.196393,0.171348,0
1.465,-0.923630,8.946166,-0.281157,0.007789,0.296575,0.255036,0
1.484,-0.395414,8.038090,5.668597,-0.146913,0.306654,0.257785,0
1.506,-0.557528,7.559525,4.428516,-0.014966,0.382401,0.290313,0
1.524,-0.658624,7.408777,7.016953,-0.018631,0.393091,0.286648,0
1.547,-0.882353,9.522238,4.771886,-0.113468,0.355065,0.274431,0
1.565,0.009571,9.712467,2.544767,-0.035430,0.374307,0.249080,0
1.585,1.509871,8.405388,6.154938,-0.185550,0.333227,0.244040,0
1.607,0.355932,8.910872,3.436692,0.020922,0.351553,0.116217,0
1.625,0.356531,8.449057,9.607183,-0.111788,0.264657,0.028252,0
1.648,0.929612,7.197610,2.988636,0.028252,0.212123,-0.038790,0
1.667,0.150150,6.925427,3.577270,0.113926,0.039401,-0.260076,0
1.689,0.595215,8.458628,2.322234,0.019242,-0.008705,-0.306807,0
1.707,-0.403789,9.756136,6.437889,-0.063225,-0.145386,-0.403323,0
1.728,0.495912,7.688139,4.871787,0.097433,-0.172111,-0.457996,0
1.750,-0.830309,8.685946,5.990431,-0.018326,-0.302073,-0.514959,0
1.769,0.142971,8.402995,3.387639,0.131641,-0.257938,-0.492357,0
1.791,-1.397408,8.658429,3.857230,0.016799,-0.314748,-0.519388,0
1.810,-1.043271,8.986844,5.553143,-0.047037,-0.306043,-0.467770,0
1.829,-0.189033,8.906684,6.340382,0.011454,-0.266337,-0.403171,0
1.850,-0.873380,8.337193,4.240680,-0.061850,-0.288939,-0.371558,0
1.869,-0.479761,9.207582,4.019942,-0.011454,-0.261145,-0.339030,0
1.891,-1.133002,8.425129,3.343371,0.039553,-0.212581,-0.286037,0
1.910,-1.692324,8.018947,7.508677,-0.131183,-0.235336,-0.253356,0
1.932,-1.020539,7.712666,4.787440,0.015577,-0.187841,-0.189826,0
1.951,-2.249851,8.562118,4.686343,0.018326,-0.194866,-0.178983,0
1.973,-2.064408,9.796814,2.727818,0.021991,-0.166919,-0.077122,0
1.992,-1.541576,7.991429,2.714657,-0.018784,-0.133321,0.010385,0
2.016,-1.782653,9.585648,6.943373,-0.035125,-0.061086,0.064446,0
2.033,-0.844068,7.306484,1.310070,0.191964,0.045204,0.142790,0
2.052,-1.642673,10.482358,10.564910,-0.159741,0.014050,0.151953,0
2.074,-0.595215,8.154141,-0.564706,0.207389,0.149815,0.273057,0
2.093,-0.342174,7.915457,7.869395,-0.158367,0.078954,0.193033,0
2.115,-0.973879,8.557930,2.706282,0.330631,0.300087,0.293368,0
2.134,-0.479761,6.900302,5.678168,-0.049480,0.133932,0.219606,0
2.156,-0.982852,9.940982,4.169494,0.090408,0.155160,0.218384,0
2.176,-0.424726,7.289136,4.162315,-0.020464,0.101404,0.171042,0
2.195,-0.513859,8.453842,4.512864,-0.074678,0.058185,0.151953,0
2.218,0.005982,9.045467,6.275177,-0.021075,0.035583,0.100487,0
2.241,0.172283,8.025527,4.738387,0.038332,0.034361,0.051771,0
2.259,-0.412762,9.040084,5.737988,0.029169,0.046884,0.057879,0
2.277,-0.227916,8.435298,3.906881,0.054062,0.041539,0.051313,0
2.296,-0.846461,8.307880,4.890331,-0.042761,0.023060,0.040012,0
2.322,-0.796212,7.548159,4.655835,-0.050702,0.020311,0.061850,0
2.337,-0.890130,8.783454,5.216951,-0.129198,-0.024435,0.060323,0
2.360,-1.175474,8.359326,3.323032,-0.068417,-0.001222,0.038637,0
2.378,-0.941576,8.492725,4.457231,-0.031001,0.036805,0.087812,0
2.400,-1.090529,8.420342,6.196813,-0.124769,0.019853,0.102320,0
2.420,-1.183849,8.066803,7.135995,-0.097586,0.040317,0.125685,0
2.441,-0.828515,8.810971,5.246862,0.051924,0.123089,0.171042,0
2.460,-0.581456,8.475976,1.033699,0.131641,0.164781,0.190132,0
2.482,-1.594218,8.288139,2.307878,0.061086,0.171806,0.206014,0
2.500,-1.168296,7.809575,6.628717,-0.175624,0.151647,0.245720,0
2.522,-1.533201,9.719646,6.789036,-0.158672,0.204792,0.304211,0
2.542,-1.656431,8.563912,1.589432,0.173486,0.466548,0.473878,0
2.560,-2.091327,9.354740,7.259226,-0.217162,0.393397,0.473573,0
2.582,-0.720240,7.875378,4.003790,-0.012981,0.480140,0.538630,0
2.601,-1.037887,7.985447,5.940182,0.076664,0.545044,0.543670,0
2.626,-0.693919,8.941978,4.984250,0.051007,0.541532,0.492052,0
2.643,-0.250050,7.252645,1.694118,0.016188,0.473267,0.432492,0
2.664,-1.173081,9.193225,5.407181,-0.032987,0.436157,0.359799,0
2.687,-0.474975,9.152547,6.108278,0.060170,0.417832,0.306043,0
2.706,-0.171685,8.382058,5.373682,0.115759,0.392175,0.277943,0
2.725,0.325424,7.945368,5.763113,-0.002596,0.308639,0.182190,0
2.749,-0.058026,8.848659,3.965505,-0.040317,0.228158,0.113163,0
2.765,0.360718,7.917252,9.392427,-0.094837,0.158061,0.057727,0
2.784,0.290728,8.085946,0.438485,0.160352,0.171348,0.004887,0
2.804,-0.269791,9.154940,7.955537,-0.008247,0.084299,-0.076511,0
2.827,-0.002393,8.487342,0.889532,0.065210,0.052076,-0.097738,0
2.845,-0.399601,8.608778,4.662415,-0.089339,0.015882,-0.120951,0
2.867,-0.172881,8.766704,3.411567,0.073456,0.061850,-0.093920,0
2.886,-0.924826,8.888140,5.859425,-0.053756,0.033445,-0.114537,0
2.908,-0.419940,7.183254,4.213162,0.038332,0.073304,-0.068264,0
2.928,-0.725025,7.554141,7.922038,0.089644,0.134390,-0.020159,0
2.949,-1.205983,10.971690,-0.908076,0.211970,0.183412,0.021075,0
2.968,-1.593022,9.363713,7.903493,-0.102778,0.123547,0.010537,0
2.990,-0.136391,7.366903,1.926820,-0.015730,0.161268,0.078191,0
3.009,-0.946960,9.233304,7.003792,0.033903,0.219453,0.094379,0
3.028,-1.030110,8.900702,3.547958,0.003360,0.223271,0.118966,0
3.052,-1.242473,7.272386,6.312864,-0.018021,0.228005,0.111177,0
3.069,0.286541,9.032906,5.163113,0.059254,0.270002,0.135612,0
3.092,0.336790,7.580462,3.694518,-0.045509,0.237321,0.100029,0
3.112,0.170489,9.279366,5.742176,0.050549,0.248011,0.065668,0
3.131,-1.146760,9.265009,2.754139,0.108581,0.205403,-0.019395,0
3.150,-0.090329,6.982855,7.585846,-0.065821,0.130267,-0.024893,0
3.172,0.313460,8.333603,3.280560,0.077122,0.170126,-0.033903,0
3.191,-0.467797,9.412766,10.997413,-0.275042,0.036194,-0.095295,0
3.210,-0.516252,7.505088,-1.020539,0.372169,0.042302,-0.151953,0
3.232,-0.114257,7.542177,1.621137,-0.039248,0.019548,-0.179289,0
3.252,-0.556929,9.478569,10.037292,-1.021671,-0.121868,-0.163559,0
3.273,-0.970888,7.913663,0.768096,-0.091935,-0.053756,-0.231823,0
3.291,-1.296312,8.696115,6.436095,0.061697,-0.014661,-0.181274,0
3.314,-0.517448,8.806784,3.588037,-0.161574,-0.106901,-0.187383,0
3.332,-1.037289,9.311071,6.754340,-0.001985,-0.067653,-0.208916,0
3.355,0.115454,8.166703,3.384049,0.067042,-0.046884,-0.141262,0
3.378,-1.084547,8.583653,6.859624,-0.231365,-0.168293,-0.220522,0
3.396,-1.280758,8.764311,4.054040,-0.018326,-0.129351,-0.193033,0
3.415,-0.582054,7.689335,3.942774,-0.030543,-0.133627,-0.164781,0
3.433,-1.035494,9.006584,6.757929,-0.089492,-0.114843,-0.119424,0
3.455,-0.365504,7.987840,2.270789,-0.007941,-0.071471,-0.105069,0
3.475,-1.594816,7.900502,5.666802,-0.065363,-0.044899,-0.076053,0
3.497,-1.249053,10.709078,4.206582,0.211359,0.073304,0.007483,0
3.515,-0.997209,7.298109,1.753939,0.116522,0.044899,0.024740,0
3.538,-0.301496,8.221739,8.468798,-0.437837,-0.054978,0.041539,0
3.557,-1.345365,9.614960,5.680561,-0.117439,0.043982,0.069639,0
3.580,-0.468395,7.904091,2.857628,0.094226,0.114232,0.071013,0
3.597,-1.234697,9.055039,3.890730,0.046578,0.120799,0.064904,0
3.620,-0.500100,8.980862,3.421736,0.171500,0.166308,0.106596,0
3.640,-0.815354,7.586444,6.908079,-0.086743,0.120035,0.091630,0
3.660,-0.147757,7.324430,5.422734,-0.137139,0.111025,0.110567,0
3.679,-1.420738,9.236894,0.408574,0.139735,0.160199,0.057879,0
3.700,-1.223331,9.359526,8.225327,-0.035277,0.101556,0.043219,0
3.719,-0.757328,8.734401,4.745565,0.125075,0.159436,0.079107,0
3.740,0.187238,7.141379,3.684947,-0.049175,0.061850,0.015424,0
3.760,-0.766900,9.567103,5.764908,-0.088423,0.036041,-0.010996,0
3.783,-0.464208,8.279764,1.179662,0.384998,0.138819,-0.030849,0
3.800,0.226720,8.225926,8.492127,0.018479,-0.000764,-0.047037,0
3.822,-1.043271,9.464211,3.279962,-0.108123,-0.030543,-0.117744,0
3.841,1.431506,6.440282,4.012764,-0.040012,-0.084757,-0.152258,0
3.863,-1.758126,8.595617,8.099705,-0.465784,-0.184023,-0.226936,0
3.882,-0.279960,8.352746,3.277569,-0.045357,-0.138514,-0.189521,0
3.901,-1.221536,8.740383,5.163711,-0.135612,-0.211359,-0.227853,0
3.927,-0.304487,7.977073,4.555336,0.025045,-0.202349,-0.249844,0
3.943,-0.886541,8.781659,5.465207,-0.004581,-0.222507,-0.270002,0
3.962,-0.696910,9.417552,3.249453,-0.020159,-0.213192,-0.212123,0
3.984,-1.475773,8.415557,5.715855,0.061697,-0.167224,-0.200669,0
4.007,-0.817149,7.979465,3.854239,0.056963,-0.107512,-0.107359,0
4.025,-1.498505,8.939586,7.298707,0.007483,-0.043524,-0.029169,0
4.044,-1.725225,9.268001,2.822334,0.043982,0.075900,0.074220,0
4.067,-1.333400,7.908877,3.145365,-0.009010,0.161879,0.221286,0
4.086,-0.672981,8.285747,9.090333,-0.029932,0.193033,0.218995,0
4.107,-1.683351,8.937193,3.004787,0.018479,0.265421,0.252593,0
4.126,-0.627518,7.082755,5.187640,-0.144622,0.213650,0.249996,0
4.148,-0.649651,9.573085,6.473184,0.012217,0.214261,0.187230,0
4.168,-0.566501,8.039884,2.516053,-0.049633,0.164628,0.146913,0
4.188,-0.342772,7.772486,6.165706,0.097433,0.167988,0.101556,0
4.209,-0.227318,8.541779,4.321438,-0.016646,0.066432,0.001222,0
4.228,0.097508,7.845467,3.399004,0.029627,0.046578,-0.062461,0
4.252,-0.410967,8.002197,3.259623,-0.067501,-0.035125,-0.104763,0
4.270,-0.225524,10.619946,7.758728,-0.168904,-0.077427,-0.128740,0
4.289,0.137587,6.666404,6.937391,0.198073,0.033139,-0.133169,0
4.310,-1.159921,9.181859,3.198606,0.047342,-0.050702,-0.181732,0
4.330,-0.585643,10.407582,9.886545,0.025198,-0.082314,-0.182343,0
4.350,-1.384248,7.668398,-1.135394,0.147218,-0.141110,-0.263588,0
4.371,-0.821935,7.709076,10.392029,-0.414014,-0.271682,-0.229380,0
4.391,-1.067797,8.212766,-3.028117,-0.332616,-0.205251,-0.241139,0
4.413,-0.583251,10.533804,17.700308,-0.724180,-0.321315,-0.191506,0
4.431,-0.616152,7.132406,-4.444668,0.651640,-0.153480,-0.188146,0
4.453,-1.600200,8.237890,7.731210,-0.438906,-0.173638,-0.205403,0
4.472,-1.154537,9.632308,6.515058,0.027642,-0.141415,-0.168751,0
4.494,-1.794617,8.551350,2.164308,0.085674,-0.109039,-0.124769,0
4.517,-0.760918,9.305687,10.019945,-0.089034,-0.119729,-0.072540,0
4.533,-1.290330,8.015358,-0.129212,0.197309,-0.017257,-0.030238,0
4.555,-1.301097,7.167700,1.224527,0.060934,-0.043677,-0.030238,0
4.575,-1.389034,9.518050,8.750552,-0.262061,-0.080023,-0.023671,0
4.598,-0.620937,7.755138,-0.178265,0.210137,0.096669,0.103083,0
4.618,-0.812962,7.276574,4.830511,-0.221897,0.033750,0.067959,0
4.635,-0.860818,9.417552,5.037490,-0.037874,0.037415,0.043830,0
4.657,-0.729213,7.000203,5.681159,-0.113163,0.050244,0.070402,0
4.676,-0.196810,8.890532,5.575277,-0.008858,0.032987,0.005345,0
4.695,-1.499702,9.338589,0.671785,0.284663,0.070097,-0.057574,0
4.719,-0.915255,8.729017,4.006183,0.064752,-0.003665,-0.069333,0
4.736,-1.154537,8.897113,7.113862,-0.175471,-0.086437,-0.063225,0
4.760,-0.382253,7.981858,7.118049,0.047800,0.001833,-0.064446,0
4.777,-0.811765,7.838289,6.676573,-0.178067,-0.062308,-0.065515,0
4.801,-1.663610,7.529614,4.683950,-0.018479,-0.026725,-0.063225,0
4.821,-1.791626,10.257433,3.215355,0.039095,-0.018784,-0.054520,0
4.840,-1.155733,9.684352,5.538188,-0.083841,-0.021686,-0.027794,0
4.860,-0.536590,6.866205,5.690132,-0.116522,0.002443,0.020159,0
4.882,-0.576072,8.002795,2.464009,-0.017715,0.045509,0.011301,0
4.903,-1.437488,8.927621,5.840282,-0.056658,0.011301,-0.023976,0
4.924,-0.878764,8.848060,5.242076,-0.103847,-0.008858,-0.025045,0
4.941,0.046062,7.755138,1.728216,-0.005040,0.018937,-0.042761,0
4.960,-0.355334,8.784052,6.546763,-0.318719,-0.035736,-0.051160,0
4.982,0.278166,6.550352,6.201598,-0.215024,-0.017562,-0.052229,0
5.001,0.012562,9.724431,1.828715,-0.122937,-0.019395,-0.096669,0
5.027,-0.417548,7.906484,7.240681,0.028711,-0.054367,-0.214261,0
5.043,0.034696,6.869794,5.368298,-0.026725,-0.095448,-0.226631,0
5.064,-1.450649,10.021739,3.235694,-0.128129,-0.177914,-0.302989,0
5.087,-1.148555,8.877372,2.763710,-0.245873,-0.270308,-0.336892,0
5.107,-0.729811,7.899904,4.497909,-0.108276,-0.293368,-0.394619,0
5.124,-1.071985,7.508079,4.149155,0.076969,-0.320399,-0.448222,0
5.146,-1.476372,7.983055,6.257231,0.159894,-0.355523,-0.501520,0
5.164,-2.169692,8.563314,3.632305,0.146913,-0.377973,-0.465479,0
5.184,-1.592423,8.091330,3.811766,0.023671,-0.455094,-0.448986,0
5.206,-1.849652,9.022736,3.594020,-0.127365,-0.506865,-0.402407,0
5.225,-2.040479,8.964112,7.616354,-0.014966,-0.440739,-0.358425,0
5.248,-2.586641,8.778069,4.511069,-0.064752,-0.407752,-0.257632,0
5.265,-1.555933,7.814959,6.471987,0.058338,-0.344680,-0.195324,0
5.288,-2.341377,9.599406,1.472184,-0.136681,-0.340099,-0.091477,0
5.307,-1.476372,7.536793,6.422934,-0.041386,-0.248927,-0.014355,0
5.328,-1.674378,7.917252,4.478168,0.067195,-0.178525,0.008552,0
5.349,-2.181656,9.533006,2.855236,0.013592,-0.117286,0.126449,0
5.369,-1.591825,7.822137,6.078368,-0.117744,-0.132558,0.161574,0
5.388,-2.220539,9.570692,4.058825,-0.127976,-0.094379,0.178220,0
5.407,-1.467399,8.363513,4.272983,0.052534,-0.001222,0.234419,0
5.429,-1.648057,8.866006,1.482354,0.001374,-0.004429,0.240986,0
5.448,-1.541576,9.009576,4.990232,-0.056200,0.022449,0.276874,0
5.470,-1.094118,9.533006,5.191827,-0.004734,0.084147,0.304211,0
5.489,-1.435095,7.895118,3.390630,0.025656,0.106596,0.292452,0
5.511,-0.427717,8.757133,6.570093,-0.106138,0.091630,0.305280,0
5.530,-1.107877,7.024729,0.995414,0.199142,0.161726,0.260839,0
5.553,-0.940379,9.413962,9.803394,0.073762,0.173486,0.266490,0
5.571,-0.321835,6.774081,5.632106,-0.063530,0.099418,0.235488,0
5.590,-0.951745,8.846864,2.405983,-0.080176,0.062308,0.166919,0
5.612,-1.045065,7.674380,5.428118,0.032529,0.081092,0.147371,0
5.632,-0.740579,9.802198,4.150351,0.162185,0.104458,0.117591,0
5.653,-1.013360,8.434700,3.214757,-0.055894,0.035888,0.120493,0
5.673,-0.430110,7.247860,8.508279,-0.027489,0.044746,0.099113,0
5.692,-0.971486,9.996614,1.598405,0.175929,0.081092,0.069028,0
5.715,-1.154537,7.751549,6.923034,0.038637,0.033139,0.041692,0
5.733,-0.863809,8.989237,1.996811,0.124616,0.056505,0.071471,0
5.755,-1.427319,7.892128,5.905486,-0.058948,-0.001069,0.023213,0
5.774,-1.933999,9.516255,1.646262,0.123700,0.074984,0.084452,0
5.796,-0.972084,10.614561,10.353744,-0.005192,0.105832,0.148440,0
5.815,-1.085743,6.735796,-1.277767,0.150273,0.184481,0.205251,0
5.837,-1.100698,7.382456,5.368896,-0.003818,0.150731,0.152869,0
5.856,-0.907478,9.557532,-0.637687,-0.042302,0.137292,0.154091,0
5.878,-0.509671,8.838489,11.918052,-0.383165,0.071624,0.122173,0
5.896,-0.656830,7.852646,2.063810,0.034361,0.167072,0.103389,0
5.917,-0.145364,7.788638,7.345367,0.072082,0.118813,0.003971,0
5.936,-0.906880,9.527023,-1.475175,0.283594,0.090713,-0.047342,0
5.960,-0.149551,9.059227,10.971092,-0.531452,-0.142484,-0.084299,0
5.979,0.126221,7.235298,0.237488,0.109345,-0.057116,-0.145080,0
6.000,-0.695115,9.358330,7.336394,0.170889,-0.036041,-0.233656,0
6.019,-0.321236,9.929018,4.626523,0.229532,-0.071777,-0.233503,0
6.037,0.284746,7.488338,6.671788,-0.222813,-0.232587,-0.280540,0
6.060,-1.671985,8.203793,0.485743,0.038484,-0.209374,-0.319330,0
6.078,-1.153340,8.876774,8.369495,-0.229074,-0.311999,-0.323606,0
6.100,-1.202992,9.190832,0.702293,0.104458,-0.226020,-0.302073,0
6.120,-0.180060,8.557332,6.656833,0.016188,-0.227394,-0.260687,0
6.141,-1.067797,8.306684,4.144967,0.077885,-0.201433,-0.244193,0
6.162,-2.222932,9.083753,4.052844,0.038026,-0.208916,-0.232434,0
6.183,-1.164706,10.070194,3.619144,0.019548,-0.186619,-0.156381,0
6.201,-1.419542,8.058429,6.470791,-0.023518,-0.129961,-0.090103,0
6.228,-1.136591,6.847062,4.525426,-0.045968,-0.102167,-0.036652,0
6.242,-1.742573,8.345567,3.934997,0.118660,-0.056963,-0.014508,0
6.264,-1.257428,9.980463,2.746362,0.167682,-0.036957,-0.003207,0
6.286,-1.447060,9.959526,4.737191,-0.057574,-0.052993,0.012981,0
6.305,-0.682553,7.511669,4.264010,-0.050854,-0.000764,0.103083,0
6.324,-1.007977,8.199605,3.933202,0.009010,0.056505,0.106290,0
6.342,-1.051047,8.569296,4.957330,-0.016646,0.068417,0.102014,0
6.366,-0.991227,8.857632,4.834100,0.040928,0.093462,0.086285,0
6.384,-0.309871,9.720243,7.735996,0.067501,0.103389,0.094379,0
6.406,-0.610768,6.789036,1.602593,-0.027642,0.056963,0.040928,0
6.425,-0.521037,8.314461,7.750352,-0.228463,-0.016188,0.010232,0
6.447,-0.588634,8.319844,0.940978,0.103083,0.074067,-0.001527,0
6.470,-1.689333,8.508878,6.764510,0.220828,0.023366,-0.074678,0
6.488,-0.610170,8.040483,6.251847,-0.229991,-0.063225,-0.055589,0
6.507,-1.115055,9.896116,4.639085,0.025504,0.012217,-0.065821,0
6.528,-0.908076,7.934600,6.014958,0.070097,0.045357,-0.053145,0
6.549,-0.098106,8.559127,3.929015,-0.054214,-0.012523,-0.092699,0
6.570,-1.358525,8.520842,1.989034,0.103847,0.034514,-0.115759,0
6.588,-0.429512,8.756535,6.656234,-0.013134,0.003054,-0.100335,0
6.610,-0.908674,7.733005,4.500301,0.058643,0.012675,-0.122173,0
6.629,-0.355334,9.050852,4.193422,-0.001833,-0.062308,-0.161268,0
6.648,-1.293321,8.357532,3.227918,0.011912,-0.062155,-0.201585,0
6.673,-0.880559,8.243274,5.528018,0.142790,-0.084452,-0.235947,0
6.689,-0.340977,8.075776,3.760919,-0.037263,-0.116370,-0.220675,0
6.711,-0.507877,8.930014,7.655836,-0.122784,-0.183107,-0.273057,0
6.730,-0.750748,7.759924,2.355136,0.035430,-0.214261,-0.333379,0
6.751,-0.294915,9.136993,7.591230,-0.082467,-0.259465,-0.352011,0
6.775,-0.577268,8.450253,-0.263211,0.185092,-0.235794,-0.382707,0
6.793,-1.405185,8.943773,8.992228,-0.118508,-0.348804,-0.416915,0
6.813,-1.210768,7.651051,2.760719,0.058948,-0.343764,-0.400880,0
6.834,-0.340379,8.207381,8.185248,0.023366,-0.360563,-0.401338,0
6.852,-1.309472,10.162916,2.306083,0.184787,-0.301462,-0.373849,0
6.871,-1.159921,8.455637,4.570889,-0.119271,-0.401338,-0.368962,0
6.893,-2.146960,8.064410,6.330212,-0.047037,-0.395993,-0.331241,0
6.912,-1.033101,7.437491,2.636891,0.112857,-0.344680,-0.288634,0
6.934,-2.115255,9.829117,6.053841,0.085521,-0.293215,-0.257938,0
6.953,-1.261018,8.885149,1.855634,0.082314,-0.282983,-0.154243,0
6.975,-1.564906,8.370692,9.263813,-0.008247,-0.283289,-0.142790,0
6.997,-0.847059,8.738588,5.132006,0.003665,-0.258243,-0.095753,0
7.016,-2.440679,7.699505,4.832903,0.248469,-0.123242,-0.082009,0
7.035,-0.977468,9.502497,5.105685,0.041844,-0.213497,-0.020006,0
7.057,-1.524826,7.776674,2.149353,0.219300,-0.144317,-0.017410,0
7.076,-1.642673,8.308478,6.440880,-0.068722,-0.197462,-0.015272,0
7.095,-1.506282,8.565108,4.370491,-0.034514,-0.162032,0.045051,0
7.118,-1.546362,7.627122,5.236094,0.047953,-0.137750,0.046731,0
7.140,-1.088734,9.319446,2.096113,0.092393,-0.121715,0.040012,0
7.159,-1.627718,8.699107,7.066005,-0.000611,-0.139124,0.040470,0
7.177,-0.034696,7.511669,2.950350,0.065210,-0.098197,0.084757,0
7.200,-1.091127,8.309675,9.205189,-0.046578,-0.126602,0.027336,0
7.219,-1.195813,8.938987,1.829313,0.168446,-0.064599,0.068570,0
7.240,-0.390030,7.716853,4.607978,-0.129656,-0.189215,0.000305,0
7.260,-1.980659,8.389834,4.821537,-0.017868,-0.139583,0.001833,0
7.278,-0.889532,8.577671,5.496912,-0.042302,-0.150731,0.023518,0
7.300,-1.408176,9.114262,5.675177,0.064752,-0.113926,-0.004276,0
7.320,-0.263809,7.695318,4.218546,-0.012981,-0.136986,0.022297,0
7.341,-0.939781,9.478569,3.182454,0.103236,-0.112399,-0.020464,0
7.360,-1.177867,8.160124,4.389633,0.027794,-0.160047,-0.042608,0
7.383,-1.088734,8.659625,5.141578,0.018937,-0.141568,-0.022449,0
7.400,-0.763909,8.584849,7.992626,0.013286,-0.136528,-0.015577,0
7.428,-1.034298,7.161120,2.487339,0.071013,-0.131489,-0.016188,0
7.447,-1.155733,9.304491,5.641079,0.014203,-0.158367,-0.029322,0
7.463,-1.840679,7.524829,2.950350,0.000458,-0.162337,-0.032376,0
7.483,-1.465604,10.652846,4.846662,-0.151647,-0.180358,0.003207,0
7.501,-0.693919,8.233703,7.432107,-0.003818,-0.100029,0.066737,0
7.523,-1.347159,7.171289,5.136792,0.209068,0.021380,0.091019,0
7.544,-1.928615,9.058628,1.441676,-0.073304,-0.051618,0.108429,0
7.564,-0.821935,8.497512,5.575277,0.028711,-0.021380,0.107512,0
7.587,-0.817747,8.050652,3.578466,0.092241,0.060934,0.134238,0
7.606,-0.942174,8.056634,5.306683,0.126754,0.084757,0.145691,0
7.624,-1.837090,9.777672,3.906881,-0.027489,0.037110,0.129045,0
7.647,-0.445065,8.386844,4.200600,-0.058948,0.040928,0.146149,0
7.665,-1.012164,8.373683,4.030111,-0.029474,0.067195,0.121257,0
7.687,-0.016750,7.914859,9.236894,-0.000458,0.084757,0.129045,0
7.706,-1.517050,8.816954,-0.381655,-0.039553,0.078954,0.093615,0
7.725,-0.872184,7.246065,5.760122,-0.120035,0.045968,0.079412,0
7.748,-0.929612,9.823135,3.401996,0.010537,0.058490,0.009163,0
7.767,-0.266202,7.437491,6.976872,-0.144470,0.006872,0.008094,0
7.786,-1.016950,8.803793,3.441477,-0.079412,0.030696,0.010996,0
7.808,-1.095315,8.598608,6.951748,-0.243124,-0.031765,-0.029169,0
7.828,-0.862613,7.663014,0.367896,-0.729220,-0.127060,-0.075442,0
7.851,-1.801197,9.611370,10.418948,0.853225,0.020769,-0.059254,0
7.869,-1.012762,6.763313,-1.103091,0.178373,-0.034972,-0.080787,0
7.890,-1.261616,8.459227,8.722437,-0.904080,-0.087506,-0.095600,0
7.909,-0.667598,9.101699,8.879167,-0.317344,-0.118966,-0.119424,0
7.931,-1.505684,9.046066,-0.187238,0.442266,0.016341,-0.150884,0
7.954,-0.550947,6.931409,5.596214,0.191506,-0.038484,-0.128740,0
7.969,-0.894916,9.555139,6.162117,-0.151036,-0.133627,-0.140346,0
7.991,-1.525424,8.810373,6.185447,-0.015882,-0.096975,-0.147524,0
8.010,-0.496511,8.786445,2.014757,-0.227853,-0.165697,-0.154854,0
8.032,-1.025923,7.432705,4.818547,0.103542,-0.081856,-0.169820,0
8.051,-0.530608,8.710473,4.358526,-0.089950,-0.125838,-0.146760,0
8.073,-1.279562,7.867002,4.847260,0.013286,-0.096364,-0.141110,0
8.091,-1.325624,8.312068,6.657431,-0.026878,-0.123395,-0.143706,0
8.114,-1.064806,9.132208,4.761717,-0.032376,-0.122631,-0.137445,0
8.133,-1.296312,8.389236,4.649254,0.131641,-0.046731,-0.113926,0
8.155,-0.961915,9.002995,0.967897,0.095448,-0.068111,-0.108123,0
8.174,-0.538385,7.356733,6.193223,0.052993,-0.036499,-0.078343,0
8.192,-0.363709,9.579665,4.747958,-0.123700,-0.090255,-0.098655,0
8.214,0.190828,7.743773,5.979065,-0.056658,-0.065210,-0.087506,0
8.233,-1.546362,7.684550,1.404587,0.008705,-0.061392,-0.168599,0
8.255,-0.582054,10.532009,10.109077,-0.084605,-0.089186,-0.150120,0
8.275,-0.771087,7.014560,0.888934,-0.013286,-0.129503,-0.206930,0
8.296,-0.701097,7.940582,7.262217,-0.179747,-0.234572,-0.280998,0
8.315,-1.016351,9.419945,6.094519,-0.114690,-0.284663,-0.333532,0
8.337,-0.417548,7.679764,3.235694,0.002291,-0.349873,-0.417679,0
8.356,-0.326620,8.138588,5.455636,0.003512,-0.404392,-0.482889,0
8.380,-1.405185,9.187243,4.688736,0.173333,-0.404851,-0.483041,0
8.397,-0.840479,7.800602,5.627919,-0.240070,-0.547029,-0.488081,0
8.416,-1.083350,8.057232,5.248656,-0.070555,-0.526871,-0.472962,0
8.442,-0.895514,9.734002,4.848457,0.034514,-0.488539,-0.429743,0
8.459,-1.897508,8.532805,3.669992,0.281303,-0.397826,-0.404545,0
8.480,-1.124627,9.433703,3.522833,0.005345,-0.458759,-0.341779,0
8.500,-0.990030,8.300702,9.762118,-0.065668,-0.430049,-0.240070,0
8.521,-1.043869,6.578468,-1.941776,0.412181,-0.284663,-0.244040,0
8.540,-1.967498,9.253643,9.094521,-0.110567,-0.358272,-0.163559,0
8.560,-1.377668,8.894122,8.545368,0.176234,-0.253662,-0.128587,0
8.585,-1.260419,7.210771,3.283551,0.226020,-0.248469,-0.120646,0
8.600,-1.847259,9.674780,4.267001,-0.007483,-0.324064,-0.105069,0
8.622,-1.214956,7.564311,3.205784,-0.167072,-0.361479,-0.062155,0
8.641,-1.202992,7.792825,5.862415,0.074526,-0.285427,-0.047800,0
8.667,-1.999203,8.333603,6.760921,0.139735,-0.262672,-0.085979,0
8.682,-1.881357,9.232706,3.769892,-0.171653,-0.358272,-0.031765,0
8.704,-1.420140,8.357532,3.023930,-0.004123,-0.302225,0.048106,0
8.723,-0.905683,8.004590,6.317650,0.062003,-0.293368,-0.014355,0
8.745,-0.943969,8.575876,3.052045,0.041539,-0.265573,0.052229,0
8.764,-1.561317,8.615956,5.048257,-0.089186,-0.272598,0.061086,0
8.784,-0.661017,8.286345,3.207579,0.019853,-0.210596,0.084910,0
8.804,-0.963709,8.377871,6.286543,-0.052687,-0.217468,0.109498,0
8.827,-1.524228,8.041080,3.698706,0.213039,-0.100945,0.074373,0
8.844,0.014955,8.574081,7.396215,-0.181580,-0.207999,0.149509,0
8.866,-2.416153,8.423932,2.575275,-0.020922,-0.125685,0.153327,0
8.885,-1.326820,8.587840,5.985048,0.202044,-0.059407,0.147371,0
8.907,-1.600200,8.225327,4.410570,-0.045204,-0.114843,0.173638,0
8.925,-0.986441,8.187641,5.443672,0.151800,-0.018021,0.209985,0
8.948,-1.679163,8.962317,4.415954,-0.023518,-0.054062,0.209068,0
8.967,-1.660021,8.189436,5.128417,0.011454,-0.010843,0.227242,0
8.989,-2.385046,9.719048,5.763113,-0.124616,-0.048106,0.255341,0
9.008,-0.147757,5.873183,-2.515455,0.315512,0.055131,0.281914,0
9.029,-1.962713,9.139386,9.590433,-0.539699,-0.048258,0.253814,0
9.048,-1.014557,6.994221,-4.364509,0.571617,0.183718,0.269086,0
9.072,-1.727020,9.623933,16.282560,-0.760832,0.022297,0.251982,0
9.091,-1.195813,8.638090,-1.182054,0.359799,0.201433,0.311541,0
9.110,-1.229313,7.312466,5.676972,-0.287106,0.088423,0.324827,0
9.128,-0.668196,8.088339,2.896512,0.229380,0.229991,0.341932,0
9.154,-1.030708,7.741978,9.913465,-0.248164,0.122937,0.307876,0
9.172,-0.741775,9.228518,0.232104,0.395077,0.319482,0.327729,0
9.191,-1.223929,7.756933,-1.386641,0.073915,0.182801,0.282067,0
9.212,-1.092324,10.610373,13.220943,0.657749,0.307723,0.312915,0
9.232,0.241077,5.903692,-1.371686,-0.057727,0.195477,0.290161,0
9.253,-1.666003,10.207183,14.292330,-0.738841,0.099113,0.179136,0
9.271,-0.595813,8.082955,-3.603591,0.352011,0.137139,0.214414,0
9.293,-0.474377,7.401000,13.506886,-0.523053,0.078038,0.109956,0
9.314,-0.128614,8.214561,-1.475175,0.502742,0.194102,0.074067,0
9.332,-0.781257,9.643075,6.408577,-0.342084,-0.002902,-0.012675,0
9.353,-0.876371,7.274181,6.081359,-0.161116,-0.062614,-0.003971,0
9.374,-0.296112,6.912266,4.993821,-0.176693,-0.089950,-0.069028,0
9.393,-0.765105,6.917650,8.863613,-0.149051,-0.120340,-0.090713,0
9.419,-1.134796,10.865210,-0.844068,0.166155,-0.067959,-0.080940,0
9.435,-1.475175,9.092726,6.764510,-0.178373,-0.180511,-0.103236,0
9.457,-2.082952,7.360920,6.564709,-0.110567,-0.159283,-0.041233,0
9.475,-1.162912,8.151749,1.296910,0.061392,-0.108276,-0.007636,0
9.497,-2.101496,8.997611,5.700900,0.153632,0.002596,0.029474,0
9.518,-1.466800,8.755338,5.614160,0.138972,0.031612,0.143706,0
9.540,-1.838884,9.036494,3.260819,0.229685,0.081703,0.173027,0
9.557,-1.226322,9.257831,4.448257,0.212886,0.151647,0.252134,0
9.576,-0.496511,8.169695,5.934200,-0.135917,0.140041,0.313221,0
9.600,-0.835693,9.493524,3.988237,-0.008858,0.227853,0.338419,0
9.619,0.387039,8.274381,3.952345,0.017562,0.269544,0.393550,0
9.640,0.394816,7.522436,6.204589,-0.162795,0.275500,0.293826,0
9.659,-0.853041,9.558130,4.531408,0.009163,0.291993,0.254578,0
9.680,1.089332,7.457830,0.412762,0.133779,0.239459,0.195019,0
9.700,-0.669990,8.915657,10.527224,0.269544,0.344986,0.105527,0
9.721,0.052044,8.169097,2.193620,0.047647,0.127823,-0.005803,0
9.740,-0.890130,8.807382,6.767501,0.009774,0.073304,-0.064904,0
9.762,-0.611964,8.094919,5.171488,0.002443,0.033445,-0.064599,0
9.781,-0.451047,7.001997,5.613562,0.024435,-0.033598,-0.156229,0
9.800,-0.881157,9.846465,3.486343,0.113315,-0.047189,-0.146149,0
9.822,-1.319044,9.025128,2.692524,0.006872,-0.102931,-0.206472,0
9.841,-0.466600,6.885945,6.891927,-0.020159,-0.124158,-0.162948,0
9.866,-0.870987,9.105886,4.526622,0.053756,-0.089186,-0.143401,0
9.882,-1.059422,9.184850,8.170891,0.125685,-0.045662,-0.087354,0
9.904,-1.223929,8.400602,0.595215,0.031307,-0.012065,-0.034667,0
9.926,-0.665803,8.843872,5.727819,-0.131947,-0.049633,0.012981,0
9.945,-1.280160,7.249056,3.951148,0.023060,0.029322,0.006872,0
9.964,-0.603590,8.931808,9.416355,-0.130878,0.010232,0.068264,0
9.986,-0.549153,7.595417,2.538187,0.007025,0.065210,0.076358,0
10.005,-1.810170,8.955139,6.823732,0.139735,0.056200,0.027642,0
10.028,-0.524626,8.471788,3.671786,0.115453,0.081245,0.039401,0
10.048,0.418744,7.631310,5.684748,0.094226,0.053603,0.068722,0
10.067,-0.455234,8.404191,6.534799,-0.044440,0.024435,0.039401,0
10.084,-0.388834,8.820542,4.225725,0.071013,0.026573,0.032529,0
10.107,-0.190828,8.964112,4.421338,0.106443,0.020769,-0.002443,0
10.128,-0.248255,8.070991,2.111068,-0.079412,-0.030849,-0.012981,0
10.148,-1.153939,8.415557,5.304290,0.070860,-0.005192,-0.038332,0
10.166,-0.430708,8.590832,4.651647,-0.047800,-0.040623,-0.027336,0
10.188,-1.167099,8.780462,7.154540,0.151189,-0.007789,-0.033903,0
10.208,-0.384646,7.846066,2.762514,0.182038,0.022297,-0.015119,0
10.228,-0.996012,7.688737,6.439086,-0.028711,-0.040928,-0.038790,0
10.249,-1.788635,9.134601,4.216752,0.049785,0.014508,0.028405,0
10.268,-1.197010,7.946564,6.839883,0.073456,0.012828,0.076664,0
10.292,-1.638485,8.311469,2.218745,0.053451,0.063683,0.119271,0
10.312,-1.514657,8.276773,2.121835,0.086896,0.115759,0.167530,0
10.331,-1.002593,10.234102,11.574681,-0.308334,0.045815,0.221438,0
10.355,-0.978664,7.759924,2.239682,0.121715,0.241292,0.245262,0
10.372,-1.714457,7.484749,6.501897,-0.129045,0.184481,0.260076,0
10.392,-0.674178,10.137792,2.087738,0.162948,0.281303,0.316428,0
10.411,-1.086342,6.275775,4.765904,-0.109192,0.204487,0.251829,0
10.436,-0.687338,9.695718,4.213162,0.206472,0.321773,0.279776,0
10.455,-0.778864,9.442079,6.333802,0.012828,0.276874,0.254120,0
10.474,0.176471,7.386045,3.424727,0.040012,0.279318,0.247553,0
10.493,-0.745962,8.161918,6.771090,-0.067653,0.213803,0.177914,0
10.516,0.286541,7.725228,4.817350,-0.080023,0.183870,0.158672,0
10.535,-0.672383,9.135797,7.482357,0.005040,0.186466,0.074067,0
10.556,0.106481,8.273783,1.695315,0.216399,0.209527,0.088423,0
10.575,-0.525823,9.065208,4.444070,-0.121257,0.076816,0.023518,0
10.594,-0.391825,7.722237,6.649056,-0.247095,0.063530,-0.014661,0
10.616,0.017348,8.258229,4.916652,-0.026573,0.103847,0.012217,0
10.638,-0.276969,9.002397,4.457231,0.012370,0.103389,-0.044440,0
10.657,-0.446261,8.956335,4.185047,0.145386,0.138514,-0.026267,0
10.676,-0.579063,8.356335,3.256632,0.081092,0.113926,-0.052993,0
10.697,-0.318844,7.487740,6.637092,-0.071471,0.071318,-0.059865,0
10.716,-0.848256,8.945567,5.359324,-0.114995,0.053909,-0.063530,0
10.740,-0.800997,9.456435,3.823730,-0.016188,0.088575,-0.067501,0
10.758,-0.491725,6.489335,5.704489,-0.031612,0.080023,-0.030238,0
10.777,-0.278166,8.479566,2.289333,-0.022755,0.048869,-0.066737,0
10.799,-1.492523,9.401999,7.551150,-0.165392,0.007178,-0.109650,0
10.817,-0.289532,8.600403,4.459623,-0.003818,0.037721,-0.070555,0
10.841,-1.234697,8.528020,4.977669,0.058643,0.045509,-0.113468,0
10.860,-1.076770,8.105687,1.618744,-0.041386,0.002902,-0.121562,0
10.880,-1.205384,9.517452,8.779266,0.152716,-0.015730,-0.093768,0
10.900,-1.226322,8.221141,3.089134,-0.074220,-0.042455,-0.070555,0
10.920,-1.130010,8.234301,6.379265,-0.151953,-0.039859,-0.037110,0
10.940,-1.957329,7.721040,1.150349,0.059865,0.036041,-0.030543,0
10.962,-0.895514,9.388240,7.338189,0.054978,0.080787,0.021686,0
10.981,-0.803390,7.708478,2.823531,0.091935,0.128434,0.093615,0
11.006,-0.636491,8.741579,10.317253,-0.014203,0.095295,0.099724,0
11.022,-0.559322,8.199007,-1.990230,0.149967,0.137750,0.095753,0
11.046,-0.178265,7.950751,12.058031,-0.023213,0.087354,0.074984,0
11.062,-1.051646,10.200603,2.210968,-0.076969,0.072082,0.024282,0
11.082,0.262014,6.123233,2.231905,0.060628,0.061086,0.012828,0
11.103,-1.567299,9.909875,7.636095,-0.212276,-0.033445,-0.051465,0
11.122,-0.132802,7.809575,3.161517,-0.066279,-0.076053,-0.092241,0
11.144,-0.417548,7.570891,8.497512,-0.127823,-0.108429,-0.123547,0
11.167,-0.344566,8.851051,2.330609,0.098197,-0.076358,-0.142790,0
11.184,-0.972682,8.976076,6.984051,-0.062919,-0.144317,-0.157603,0
11.206,-1.207777,8.458628,-0.373879,-0.002902,-0.144622,-0.144317,0
11.224,-1.151546,9.052048,7.634301,-0.126602,-0.165544,-0.126602,0
11.250,-0.552144,7.643274,2.943172,0.198836,-0.054672,-0.089950,0
11.267,-0.386441,9.768100,6.425327,-0.113774,-0.096975,-0.012523,0
11.287,-0.600000,8.090134,3.736991,0.131489,0.000000,-0.002749,0
11.306,-0.783649,9.037691,5.755935,0.036652,-0.001833,0.009010,0
11.328,-0.881755,7.420143,3.989434,-0.105527,-0.040470,0.031918,0
11.348,-1.119243,8.345567,5.459823,-0.100182,-0.015882,0.052534,0
11.369,-1.223331,9.026325,3.841079,-0.139277,-0.019395,0.051313,0
11.388,-1.345963,8.842078,6.154938,0.001222,0.039553,0.088728,0
11.410,-0.824926,7.628917,5.346164,0.137750,0.054214,0.073915,0
11.429,-1.076172,7.977073,6.206982,-0.073762,-0.001069,0.089492,0
11.448,-0.814756,7.965706,3.706482,0.014050,0.019395,0.099418,0
11.470,-0.793819,9.787243,7.034300,0.058796,0.037874,0.085063,0
11.489,-1.567299,8.123034,1.845464,-0.021838,-0.009316,0.078343,0
11.511,-0.572483,7.948359,7.133004,-0.093157,-0.022602,0.091935,0
11.530,-0.167498,9.061021,3.981059,0.034056,0.021075,0.113315,0
11.551,-0.601795,8.084749,5.124230,-0.032529,0.008552,0.076664,0
11.571,-0.473181,8.295318,3.855435,0.026114,0.021533,0.078191,0
11.592,-1.491925,9.142377,6.049056,0.032376,0.035736,0.081856,0
11.612,-0.418744,6.795018,5.754738,-0.225256,-0.029627,0.132558,0
11.634,-0.968495,8.883952,4.015156,0.010996,0.067042,0.153022,0
11.652,-1.149751,9.546764,3.092723,0.172264,0.132710,0.168904,0
11.671,-1.311865,7.767102,5.139185,0.062461,0.142331,0.180358,0
11.693,-1.317249,8.799605,3.612564,0.113621,0.193491,0.230601,0
11.714,-0.428913,8.682955,5.438886,-0.101404,0.168904,0.264199,0
11.734,-0.853041,8.297112,7.646863,-0.278249,0.141568,0.281303,0
11.753,-1.498505,9.449855,4.107280,-0.017104,0.234267,0.273973,0
11.775,-1.165305,8.255836,5.289334,0.072540,0.290008,0.293521,0
11.794,-0.468395,7.760522,1.024726,0.051771,0.299935,0.289550,0
11.817,-0.256630,8.301300,6.852446,-0.052382,0.270308,0.291993,0
11.835,-0.862613,9.193823,6.488737,-0.070402,0.267406,0.250760,0
11.854,-0.987039,7.597212,5.913263,-0.103694,0.252134,0.216704,0
11.876,-0.501895,8.578269,2.900101,0.130267,0.321926,0.230449,0
11.897,-0.914656,8.214561,4.575675,-0.009621,0.269391,0.189063,0
11.918,0.076570,9.252447,5.609972,0.005345,0.262366,0.168751,0
11.936,-0.501895,8.998808,5.295317,0.037263,0.279013,0.121868,0
11.956,0.220738,8.077571,5.367700,-0.141873,0.223271,0.121715,0
11.983,-0.452243,7.700701,3.173481,0.002291,0.225562,0.051771,0
11.999,-0.357129,8.830712,9.023932,-0.279318,0.147066,0.028100,0
12.020,-0.040080,8.431708,0.464806,0.026114,0.215330,0.037721,0
12.039,-0.285942,9.124431,7.051050,-0.061697,0.158061,-0.048106,0
12.060,0.081356,7.740781,2.823531,0.103389,0.174707,-0.070860,0
12.080,-0.865005,8.098508,8.069795,-0.132558,0.086590,-0.124922,0
12.101,-0.390030,8.589635,1.848456,0.088423,0.096058,-0.138972,0
12.120,-0.550947,9.064610,5.266005,-0.040928,0.029780,-0.196546,0
12.140,-0.598804,7.497312,4.667799,-0.072387,-0.001222,-0.219759,0
12.161,-0.136391,8.556734,5.547161,-0.075442,-0.035736,-0.217468,0
12.180,-0.890130,8.931808,5.317450,0.179289,0.029780,-0.238848,0
12.211,-1.274776,8.006983,5.888138,-0.012523,-0.041233,-0.228463,0
12.221,-0.924228,9.244670,2.322234,0.075595,-0.038179,-0.204945,0
12.247,-0.957129,9.373882,7.932805,-0.154091,-0.108581,-0.219606,0
12.262,-0.858425,7.307082,-0.660419,0.112399,-0.003665,-0.127060,0
12.283,-1.167697,8.314461,8.950952,0.128282,0.000153,-0.158672,0
12.312,-0.986441,9.758529,2.393421,0.052076,0.077427,-0.047647,0
12.329,-1.594816,8.461020,6.187840,-0.100945,0.030085,-0.055131,0
12.344,-1.170689,7.612167,4.042674,0.046884,0.094073,-0.010079,0
12.362,-0.284746,8.305488,5.169095,0.042302,0.113163,0.020464,0
12.385,-0.695713,9.020343,3.232703,-0.011301,0.102167,0.025198,0
12.408,-0.294317,8.576474,5.425127,-0.217315,0.051313,0.008552,0
12.424,-0.516252,8.772686,4.788636,0.148287,0.109803,-0.021686,0
12.447,-0.591027,6.591628,4.746762,0.107665,0.118050,-0.077122,0
12.465,-0.020339,8.845069,5.347361,0.157909,0.107054,-0.083383,0
12.488,-0.105284,9.218947,4.432106,-0.008247,0.018021,-0.131489,0
12.509,-0.564706,8.087142,6.181857,-0.025504,-0.033903,-0.184787,0
12.526,-0.992423,7.369894,6.536593,0.188757,-0.025656,-0.227547,0
12.549,-0.183649,8.243873,1.527817,-0.315054,-0.232129,-0.273057,0
12.571,-1.135394,9.861421,6.391828,0.161421,-0.104611,-0.288023,0
12.589,-0.663410,8.551350,3.587439,-0.087965,-0.207541,-0.255494,0
12.608,-1.441077,7.299305,7.022336,-0.036041,-0.216246,-0.295964,0
12.630,-0.242871,8.694920,0.535394,0.094531,-0.167682,-0.232892,0
12.652,-0.994218,8.620742,8.009376,-0.018021,-0.171195,-0.163712,0
12.668,-1.052244,9.472587,3.787240,0.111483,-0.109498,-0.165850,0
12.690,-1.453042,7.855039,6.808178,-0.233350,-0.201738,-0.142790,0
12.708,-0.613759,7.886145,0.908076,0.234725,-0.061086,-0.083536,0
12.730,-1.032503,9.092726,6.846464,0.199447,0.006109,-0.062003,0
12.750,-0.181256,7.313064,6.535397,0.092851,-0.045968,-0.059712,0
12.771,-1.573879,9.391231,4.106682,0.032834,-0.065057,-0.069333,0
12.791,-0.847657,7.849655,3.899703,0.031001,-0.058032,-0.030696,0
12.816,-0.364307,8.848659,5.254040,0.044288,-0.057879,-0.070097,0
12.831,-1.179063,8.685348,4.931607,0.268170,0.016035,-0.057269,0
12.853,-0.763310,7.616953,4.240680,-0.085827,-0.108734,-0.059101,0
12.872,-0.726820,9.241081,6.926623,-0.009927,-0.090713,-0.042608,0
12.891,-0.823131,8.040483,3.570690,0.060628,-0.087812,-0.071318,0
12.913,-1.455434,8.140981,6.439684,-0.037568,-0.109345,-0.080023,0
12.932,-0.622732,7.718050,2.521437,0.109192,-0.064752,-0.042761,0
12.953,-0.893719,9.606585,7.700103,0.044746,-0.072846,-0.054672,0
12.974,-0.378066,8.162517,3.851248,0.080023,-0.073762,-0.037263,0
12.993,-1.191028,7.403992,6.974480,-0.150884,-0.130572,-0.058338,0
13.015,-0.879961,8.442476,5.257031,-0.040928,-0.101251,-0.021228,0
13.034,-1.407578,8.272586,5.055436,0.065973,-0.043677,-0.014203,0
13.056,-0.751346,8.489735,5.576473,-0.024282,-0.059407,0.011606,0
13.075,-1.326820,9.221938,1.580459,0.032681,-0.058490,0.011606,0
13.097,-0.398405,8.471190,6.764510,-0.100793,-0.073456,0.033750,0
13.116,-1.170090,7.236494,2.371886,-0.081398,-0.063988,0.012370,0
13.140,-0.050847,8.152347,6.010172,-0.172111,-0.095142,0.027489,0
13.158,-1.547558,8.585447,4.610969,0.099876,-0.021228,-0.029932,0
13.176,-0.991227,9.683155,4.631907,-0.107512,-0.073151,0.040928,0
13.199,-0.786042,7.556534,7.475178,-0.127365,-0.082619,0.006720,0
13.218,-0.904487,7.557730,-1.128814,0.183259,-0.032529,0.020311,0
13.240,-1.096511,9.091530,9.963116,-0.520762,-0.172875,0.006109,0
13.258,-1.875973,8.783454,4.869992,-0.245568,-0.109039,0.053298,0
13.280,-0.772283,7.755138,4.750351,-0.139583,-0.054520,0.056658,0
13.300,-1.765305,8.063214,6.793223,-0.279471,-0.069639,0.038637,0
13.321,-1.421337,9.015557,1.028316,0.155618,0.046884,0.139277,0
13.340,-1.492523,8.134998,5.758926,0.100029,0.086896,0.132558,0
13.362,-0.713659,8.694321,6.315257,-0.017104,0.074373,0.173027,0
13.381,-1.740778,9.212965,2.975475,0.200822,0.197920,0.194255,0
13.400,-1.447060,8.430512,4.716253,-0.267711,0.086285,0.213497,0
13.423,-1.063011,7.568498,6.314659,0.001985,0.198684,0.291382,0
13.443,-0.610768,8.589037,5.465805,-0.092851,0.220522,0.299629,0
13.461,-1.100100,8.729615,4.698307,-0.040775,0.254425,0.285579,0
13.487,-0.545564,6.906284,7.135397,-0.135154,0.254120,0.271529,0
13.502,-0.183649,7.170093,2.658426,0.052840,0.306960,0.264352,0
13.524,-1.582852,9.166306,7.415358,-0.079412,0.239154,0.174555,0
13.546,-0.509671,8.962317,2.537588,0.015577,0.246789,0.177609,0
13.565,-0.098106,8.091330,5.105685,-0.031612,0.190132,0.117133,0
13.585,-1.397408,8.006983,5.473582,-0.132405,0.124922,0.022297,0
13.606,-0.717249,8.219944,2.163112,0.011454,0.130267,0.020006,0
13.625,-0.727418,9.334999,6.637690,-0.061392,0.071471,-0.042761,0
13.650,-0.762712,7.255637,5.607580,0.004581,0.043830,-0.076664,0
13.667,-0.777069,9.293723,5.751149,0.015882,0.040928,-0.104763,0
13.686,-0.763310,8.250452,6.202795,-0.060934,0.003207,-0.117744,0
13.708,-0.829711,8.317451,4.120440,-0.023976,-0.002902,-0.102320,0
13.728,-1.120439,7.080960,1.253241,-0.091630,-0.035736,-0.132405,0
13.748,-1.424328,9.385847,7.355537,-0.208763,-0.050396,-0.115453,0
13.769,-1.007378,7.829914,5.032704,0.004887,-0.008705,-0.113315,0
13.788,-0.619143,8.146365,5.322834,-0.013134,-0.027031,-0.087201,0
13.810,-0.982852,8.243274,6.110073,-0.004734,-0.032681,-0.130420,0
13.829,-0.534796,8.983852,1.249652,0.053451,-0.002138,-0.090255,0
13.848,-0.894916,8.655437,6.963114,0.045051,0.019548,-0.085979,0
13.870,-0.022732,7.744370,3.626921,-0.009774,-0.001680,-0.075442,0
13.890,-1.031307,9.037691,7.478767,0.006414,-0.038484,-0.134696,0
13.911,-0.297906,8.284551,3.248257,0.094379,-0.026420,-0.142179,0
13.930,-0.547358,7.651051,2.006980,-0.101709,-0.114537,-0.224493,0
13.952,-1.342972,9.497113,9.665209,-0.115301,-0.159436,-0.214566,0
13.973,-0.464806,7.705487,2.091327,-0.009774,-0.219300,-0.271682,0
13.991,-1.356730,7.453642,6.980462,-0.068111,-0.257938,-0.306501,0
14.013,-0.407378,8.647063,5.591428,0.098960,-0.235488,-0.286496,0
14.032,-1.505684,8.255239,5.653642,0.089034,-0.269850,-0.339488,0
14.053,-0.936790,9.815358,3.560520,0.116981,-0.272751,-0.301004,0
14.074,-1.521237,8.362317,3.790829,-0.082925,-0.328340,-0.263894,0
14.093,-0.862014,7.871789,5.471787,-0.098044,-0.310014,-0.196393,0
14.116,-1.461416,8.630313,3.390630,-0.110872,-0.257785,-0.161879,0
14.136,-0.903889,8.854640,7.348358,-0.087965,-0.210137,-0.078954,0
14.154,-1.718047,7.971090,1.840679,0.037263,-0.164933,-0.058643,0
14.177,-1.433899,9.565907,5.947361,-0.042302,-0.140041,-0.024129,0
14.195,-1.503291,8.134998,4.153940,0.022602,-0.098502,0.018479,0
14.219,-0.546760,8.161918,7.091728,-0.059407,-0.087659,0.057269,0
14.236,-1.894517,8.538788,3.023331,0.201127,-0.003512,0.059712,0
14.255,-0.651446,7.333403,6.388836,-0.031765,-0.064752,0.065515,0
14.280,-2.727818,9.150154,3.350550,0.151189,0.012065,0.083841,0
14.296,-0.415155,7.537391,4.820940,0.026420,-0.024740,0.134848,0
14.317,-1.211366,9.802198,6.080760,0.091019,0.022297,0.124922,0
14.340,-1.180858,8.216953,5.828916,-0.082314,-0.021991,0.137292,0
14.357,-0.827917,6.506085,3.809972,-0.107054,-0.027642,0.143553,0
14.381,-1.301695,8.960523,5.019544,-0.067501,0.000458,0.149051,0
14.399,-1.191626,9.800404,5.751149,0.029016,0.042455,0.149967,0
14.417,-1.652244,7.500901,1.596611,0.028863,0.046426,0.149967,0
14.440,-0.940379,8.609974,6.850053,-0.100335,0.029932,0.163864,0
14.458,-1.030708,8.313264,2.264208,0.038484,0.092393,0.194255,0
14.483,-1.588236,8.684750,6.005387,-0.081703,0.083383,0.200822,0
14.500,-0.975673,7.547561,6.212366,0.045204,0.137903,0.222660,0
14.521,-1.018744,8.775677,5.982057,-0.093615,0.124769,0.223424,0
14.541,-1.030110,8.270193,4.588836,0.069028,0.179594,0.228005,0
14.563,-0.975673,7.447062,4.984250,-0.074984,0.158214,0.256410,0
14.581,-1.468595,8.717052,3.319443,0.053909,0.196546,0.230449,0
14.607,-0.522832,9.427123,3.952943,-0.168141,0.132100,0.242208,0
14.623,-0.559322,8.705089,5.783453,-0.182954,0.137903,0.197004,0
14.643,-0.242871,7.228717,3.963711,0.035430,0.194408,0.176387,0
14.664,-1.166501,8.128419,5.888737,-0.055741,0.158214,0.134085,0
14.687,-0.880559,8.271988,3.346961,-0.075136,0.134085,0.126144,0
14.703,-0.958325,10.157532,5.193023,-0.003971,0.146608,0.105985,0
14.726,-0.701695,8.521440,5.715257,-0.007178,0.154243,0.079107,0
14.745,0.252443,7.025926,6.955337,0.124922,0.185397,0.091477,0
14.767,-1.145564,8.749356,3.069991,0.058643,0.151036,0.040164,0
14.786,-1.118046,7.697112,3.776472,0.047953,0.108123,0.000611,0
14.808,-0.369093,8.626724,5.405386,-0.156076,0.066432,0.035277,0
14.827,-0.727418,8.945567,5.567500,0.024435,0.118202,-0.006872,0
14.849,-0.325424,7.561918,4.646862,-0.007330,0.074831,-0.014508,0
14.867,-1.297508,9.321240,4.926224,-0.147066,0.000764,-0.083536,0
14.886,-0.427119,7.115058,5.891727,-0.063377,-0.018784,-0.089034,0
14.909,-0.466600,8.587242,2.651248,-0.128434,-0.100640,-0.162643,0
14.928,-1.286142,8.939586,5.955736,0.042150,-0.054214,-0.180663,0
14.950,-0.408574,8.746964,4.819145,-0.130725,-0.169668,-0.195171,0
14.970,-1.232902,8.912666,2.988636,0.160657,-0.100945,-0.235794,0
14.988,-0.175274,8.385647,7.411768,0.102931,-0.120035,-0.227547,0
15.012,-0.689731,8.175676,3.208775,-0.100487,-0.175929,-0.204182,0
15.031,-1.249652,8.319844,5.061418,0.072235,-0.101862,-0.166919,0
15.050,-1.254437,8.403593,4.804788,-0.067501,-0.133932,-0.134085,0
15.071,-0.958924,8.574081,3.608377,0.106290,-0.081398,-0.103542,0
15.091,-0.959522,8.395817,5.895317,0.050702,-0.093462,-0.096975,0
15.113,-1.890330,8.804989,4.657031,-0.080176,-0.073915,-0.043066,0
15.131,-0.416949,7.604989,4.306482,-0.005040,-0.038790,0.014966,0
15.154,-1.600200,8.974879,6.780661,0.139430,0.031765,-0.012065,0
15.172,-1.648057,8.529815,0.400798,0.311541,0.069180,0.038943,0
15.195,-1.636092,8.429914,7.826324,-0.359036,-0.044288,0.081703,0
15.216,-1.196411,8.549556,3.504887,-0.199905,0.011454,0.126449,0
15.232,-1.869393,8.199605,4.897510,-0.144775,0.039095,0.122478,0
15.255,-1.291526,9.223135,5.888737,-0.007636,0.105527,0.169057,0
15.275,-0.695713,8.036893,4.561916,0.120799,0.155923,0.156534,0
15.293,-0.798605,7.145566,4.068397,-0.063377,0.104611,0.164933,0
15.315,-0.730409,7.621140,5.843273,-0.063988,0.113621,0.133474,0
15.337,-1.517050,10.228719,2.484946,0.216093,0.167377,0.103389,0
15.355,-0.529412,8.588439,8.969496,-0.148287,0.011759,0.084299,0
15.377,-0.261416,6.867401,2.162513,0.053451,0.004429,0.008094,0
15.395,-0.899103,7.964510,8.276175,-0.119729,-0.056963,-0.026114,0
15.418,-1.348356,8.852845,2.693122,0.098349,-0.012981,-0.010232,0
15.436,-1.216152,8.042875,3.981059,0.096517,-0.008247,-0.008247,0
15.460,-1.448256,9.043674,7.596614,-0.085674,-0.026114,0.027947,0
15.478,-1.680360,9.081959,2.359921,0.094837,0.051313,0.072235,0
15.500,-1.053440,8.182856,7.278966,-0.103389,0.056047,0.124464,0
15.520,-1.220938,8.122437,3.081956,0.058032,0.163864,0.216093,0
15.541,-1.427319,8.870791,4.472186,-0.036652,0.189215,0.239917,0
15.560,-0.635893,8.277970,4.924429,-0.074067,0.229227,0.299324,0
15.580,-0.546162,8.204391,5.223532,-0.031765,0.278402,0.305432,0
15.602,-0.241675,7.975876,4.932804,0.008552,0.296422,0.284510,0
15.621,-0.474377,8.029117,4.886144,-0.042150,0.269544,0.195171,0
15.640,-0.123230,8.476574,2.240878,-0.005498,0.262366,0.189215,0
15.663,-0.726820,8.669196,9.394221,-0.113163,0.154702,0.056047,0
15.684,-0.007178,7.384251,4.966902,-0.028863,0.102473,0.008399,0
15.701,-0.016152,8.169097,2.872584,0.058948,0.032529,-0.096211,0
15.727,-1.310669,9.261420,3.320640,-0.244651,-0.109650,-0.197920,0
15.742,-0.312862,8.288139,8.689535,-0.075136,-0.144622,-0.223271,0
15.764,-1.022334,8.609974,5.101498,0.013592,-0.171195,-0.262366,0
15.787,-0.644866,7.766504,5.274379,0.146149,-0.187994,-0.318413,0
15.805,-0.969093,8.450253,2.562115,-0.028100,-0.231823,-0.268475,0
15.824,-1.846063,8.772088,4.717450,-0.104000,-0.224493,-0.226173,0
15.847,-1.430310,7.626524,2.659024,0.029474,-0.156534,-0.155160,0
15.865,-1.934597,9.692128,8.842078,0.076053,-0.072846,-0.088117,0
15.888,-0.161516,7.506883,-0.420539,0.116828,0.024129,0.045509,0
15.907,-1.545165,8.831908,9.995419,-0.491746,-0.057574,0.018021,0
15.927,-1.337588,8.612965,3.636492,0.139735,0.122173,0.070708,0
15.946,-0.742971,7.418947,3.052644,0.085063,0.104763,0.138819,0
15.969,-1.272383,8.572288,5.211568,-0.019090,0.071318,0.076053,0
15.987,0.009571,8.906086,5.489733,-0.200975,0.034667,0.111941,0
16.010,-0.968495,8.136195,5.041677,0.139888,0.127213,0.064599,0
16.028,-0.486341,7.021738,5.220541,-0.052076,0.052687,0.082314,0
16.050,-0.698106,8.940184,6.617949,-0.138514,0.012370,0.053909,0
16.070,-0.528216,9.030513,5.836094,-0.147829,-0.001069,0.024435,0
16.088,-0.931406,7.607980,1.996212,-0.015424,0.017562,0.041844,0
16.111,-1.537987,8.706883,7.626524,-0.180511,-0.022297,-0.008399,0
16.129,-1.162314,8.168498,1.527219,-0.014508,0.044135,0.032529,0
16.151,-1.162314,8.434102,7.453642,-0.304058,-0.025351,0.063225,0
16.171,-1.689931,8.334800,3.263810,0.059559,0.123547,0.139430,0
16.192,-1.018744,8.013563,7.849056,-0.206472,0.067959,0.131030,0
16.212,-2.152942,8.592627,3.620939,0.035277,0.185856,0.182801,0
16.233,-0.266202,7.792825,2.624328,-0.063683,0.145233,0.218231,0
16.251,-1.995016,8.205587,7.449455,-0.152716,0.131641,0.169668,0
16.273,-0.583849,9.066405,4.095914,0.126144,0.264963,0.244651,0
16.292,-0.692124,7.022336,4.574479,-0.025045,0.213497,0.202196,0
16.314,-0.535394,9.984053,5.551947,-0.045357,0.196546,0.191812,0
16.333,-0.696311,8.044071,4.287938,-0.051007,0.194102,0.156076,0
16.352,-0.573679,8.325228,6.677770,-0.080634,0.180205,0.157145,0
16.377,-0.294317,7.596015,2.427519,-0.051313,0.157603,0.088575,0
16.393,-0.207577,9.167501,6.560522,-0.052229,0.161421,0.080481,0
16.415,-0.605384,8.081758,2.525026,0.037874,0.162643,0.017104,0
16.434,-0.443869,8.773883,8.173882,-0.005498,0.141873,0.014050,0
16.456,-0.345165,7.042675,0.711865,0.104152,0.123242,-0.025809,0
16.475,-1.009173,9.053843,10.863415,-0.083536,0.083078,-0.062919,0
16.498,-0.663410,8.215756,3.833900,0.031001,0.098502,-0.065515,0
16.516,-0.045464,7.677372,3.591627,0.082467,0.085979,-0.076053,0
16.536,-0.958325,9.610174,6.214160,0.009621,0.053756,-0.125991,0
16.556,-0.368495,8.751151,3.307479,0.076358,0.042455,-0.110567,0
16.582,-1.128216,6.767501,2.396412,-0.069486,-0.028558,-0.179594,0
16.597,-0.535394,8.440084,9.193823,-0.246789,-0.094379,-0.136681,0
16.618,-0.586840,9.081959,2.763710,-0.081550,-0.077580,-0.209068,0
16.639,-0.926621,8.090732,5.709275,-0.009927,-0.062155,-0.200364,0
16.657,-0.500100,7.811968,2.239682,0.114537,-0.044288,-0.209221,0
16.683,-1.001396,9.675977,9.796814,0.101404,-0.062308,-0.230601,0
16.699,-0.793221,7.843074,2.285146,0.131183,-0.119119,-0.274278,0
16.720,-1.237687,8.463413,5.111667,0.077733,-0.162185,-0.274278,0
16.740,-0.664607,8.474779,2.408974,0.044746,-0.177609,-0.260839,0
16.761,-0.897907,8.550154,6.456434,-0.109803,-0.239612,-0.243277,0
16.782,-0.470788,8.018947,4.956134,-0.023671,-0.245568,-0.270308,0
16.800,-1.668994,7.700103,5.062016,0.038179,-0.242971,-0.308945,0
16.821,-1.246661,9.293125,5.092525,0.061850,-0.207389,-0.221897,0
16.840,-1.045663,8.140981,5.593821,-0.037110,-0.239154,-0.203723,0
16.860,-2.107479,8.581261,6.790233,0.021991,-0.200058,-0.172722,0
16.882,-1.903490,8.221739,1.421337,0.090255,-0.158672,-0.113163,0
16.901,-1.450050,8.921639,7.031908,0.150273,-0.144928,-0.076969,0
16.927,-1.830509,8.045268,2.624926,0.118660,-0.058338,0.005345,0
16.943,-1.481755,9.081959,8.265408,0.210290,-0.049480,0.048716,0
16.962,-1.525424,7.984849,2.512464,-0.010232,0.005498,0.132710,0
16.984,-0.336192,7.967501,5.989235,-0.214108,-0.004429,0.219300,0
17.007,-1.788037,8.925827,1.856232,-0.067042,0.045051,0.191201,0
17.024,-1.825724,8.615956,7.249056,-0.171958,0.048869,0.194255,0
17.045,-0.344566,6.695716,4.965705,0.076816,0.150120,0.258549,0
17.066,-1.383650,9.860822,3.847061,-0.037874,0.122020,0.218231,0
17.086,-1.110270,9.360723,4.645665,-0.201738,0.070402,0.227089,0
17.110,-0.774676,7.684550,4.429713,-0.166155,0.087965,0.201585,0
17.127,-0.280558,7.283154,5.856433,-0.036957,0.121409,0.190132,0
17.146,-1.307678,7.907681,5.471787,0.065973,0.133169,0.143859,0
17.165,-0.813560,9.988240,3.633501,0.042608,0.109345,0.118050,0
17.189,-0.183649,7.863413,5.658427,0.029627,0.107512,0.100487,0
17.209,-0.386441,8.081161,5.146962,0.012065,0.085368,0.077427,0
17.226,-1.596611,8.385049,6.321239,0.065515,0.063072,0.010079,0
17.248,-0.515653,8.737990,2.306083,-0.034667,0.012981,-0.006261,0
17.270,-1.392025,9.111869,4.861019,0.018326,0.032070,0.003665,0
17.288,-0.074178,7.225128,5.658427,-0.079107,0.008247,0.025198,0
17.310,-1.153939,8.875577,3.393621,0.068722,0.065210,0.001374,0
17.329,-1.171885,8.955139,6.156135,0.011148,0.072082,0.058948,0
17.348,-1.123430,8.183454,4.882555,-0.004581,0.067195,0.047189,0
17.370,-0.952942,7.801798,5.943173,-0.005956,0.075289,0.039706,0
17.389,-1.214357,8.837891,3.865605,-0.048869,0.056963,0.052993,0
17.411,-0.856631,8.748757,4.931607,-0.176540,-0.010385,0.014966,0
17.430,-1.350150,8.365906,5.045267,0.071777,0.036957,0.009316,0
17.452,-0.268594,7.692327,3.943372,-0.007330,0.001069,-0.008247,0
17.471,-1.582254,8.532207,6.216553,-0.033292,0.002138,-0.039706,0
17.493,-0.512662,9.206984,3.333202,0.126144,0.032529,0.003054,0
17.512,-0.515055,8.111071,7.530213,0.010690,-0.026878,-0.053451,0
17.533,-1.104886,7.606783,5.024928,0.119729,0.014203,-0.051313,0
17.554,-0.830309,8.538189,3.945765,0.122937,0.012217,-0.023671,0
17.573,-1.378266,8.788837,6.120841,0.074220,0.025198,-0.013134,0
17.592,-0.750150,8.218149,2.983252,0.051465,0.032987,0.019242,0
17.614,-1.113261,8.958130,5.403592,-0.115453,-0.030696,-0.000611,0
17.633,-1.228714,7.855039,4.055236,-0.010232,-0.003665,0.026114,0
17.655,-0.758525,7.966903,7.152745,-0.029932,-0.008552,0.012217,0
17.674,-0.701695,8.109276,4.762914,0.049633,0.022297,0.011454,0
17.696,-1.099502,8.590233,3.810570,-0.087201,-0.042608,-0.017715,0
17.715,-0.546162,8.391629,6.090930,-0.048258,-0.042913,0.007330,0
17.737,-0.727418,7.794620,4.860421,0.032223,-0.038026,-0.042761,0
17.756,-0.301496,7.968100,4.890930,0.021686,-0.053603,-0.049785,0
17.777,-0.929013,8.588439,6.099305,-0.045509,-0.061697,-0.045968,0
17.800,-1.040280,8.609974,2.781656,0.004887,-0.067195,-0.044288,0
17.817,-1.144966,8.422137,5.757730,-0.047495,-0.053756,-0.026267,0
17.840,0.002991,7.954939,3.730411,0.111941,0.012523,0.022144,0
17.860,-1.625325,8.477771,5.099703,0.029627,0.001833,-0.028405,0
17.879,-1.092324,8.702696,5.568696,0.061239,0.029932,0.045051,0
17.900,-1.570888,8.435298,3.381058,-0.037263,-0.009774,0.022755,0
17.920,-1.062413,7.995617,6.717251,-0.153632,-0.040775,0.061086,0
17.943,-1.581058,8.241479,4.302295,0.040623,0.028100,0.068875,0
17.960,-1.223929,9.245867,3.802195,0.049938,0.042302,0.087048,0
17.981,-1.280758,8.364112,7.191628,-0.151647,-0.012217,0.071929,0
18.001,-0.965504,7.507481,-0.433101,0.176845,0.125227,0.160963,0
18.020,-1.789233,8.515457,7.792825,-0.327729,0.038179,0.144011,0
18.046,-1.028914,9.068199,5.876772,0.034514,0.165850,0.227853,0
18.061,-1.040280,7.451250,3.696911,-0.090713,0.151494,0.244040,0
18.090,-1.010369,8.291729,6.192625,-0.038637,0.208152,0.261297,0
18.103,-1.472184,8.306684,3.794419,-0.040012,0.229991,0.282067,0
18.122,-1.415355,9.052647,4.283751,-0.106596,0.233198,0.296880,0
18.146,-0.697508,8.532207,7.433902,-0.177456,0.236710,0.296575,0
18.167,-0.410967,8.113463,4.214957,-0.144928,0.243277,0.289397,0
18.184,-0.425324,7.717451,4.889135,-0.064446,0.253051,0.220828,0
18.206,0.003589,7.627122,3.155535,0.013592,0.244346,0.187077,0
18.225,-0.376870,8.366505,5.977869,0.026267,0.201891,0.111025,0
18.249,0.294317,8.456235,4.292126,-0.109650,0.132558,0.042150,0
18.266,-0.022134,8.207381,5.460421,-0.068417,0.080787,-0.021533,0
18.287,-0.118445,7.692925,6.821339,0.044135,0.057116,-0.116064,0
18.307,-0.392423,8.437093,3.794419,0.012065,-0.019090,-0.179136,0
18.329,-0.726222,9.031111,2.991028,0.101404,-0.014355,-0.194560,0
18.348,-0.679562,7.659425,6.183053,-0.081398,-0.074984,-0.200058,0
18.366,-0.951147,8.452047,3.777669,0.051924,-0.065668,-0.199600,0
18.389,-1.363909,8.484351,5.903692,-0.084757,-0.142484,-0.228922,0
18.408,-1.445863,8.834301,4.070789,0.050702,-0.128740,-0.203876,0
18.428,-1.405185,8.301898,5.738587,0.004887,-0.122631,-0.151189,0
18.450,-0.884148,9.032308,3.979862,0.047953,-0.097891,-0.102931,0
18.468,-1.371087,8.114660,3.978666,-0.000153,-0.082009,-0.082314,0
18.492,-1.013959,8.752347,6.309275,0.047495,-0.025198,-0.017562,0
18.511,-0.920639,7.735996,5.647660,-0.056810,-0.017715,0.013897,0
18.530,-0.279960,7.942975,-0.704686,-0.251829,0.018479,0.041844,0
18.551,-1.643271,9.152547,10.848459,-0.137903,0.055894,0.044288,0
18.571,0.028714,8.210971,6.448059,-0.132252,0.043371,0.072998,0
18.592,-1.013959,6.991230,4.191029,0.069028,0.084605,0.024587,0
18.612,-0.688535,7.287342,4.341178,-0.046273,0.031154,0.016493,0
18.633,-0.873978,10.091131,5.044070,0.026725,0.034514,-0.000458,0
18.652,-0.839881,7.762317,1.785644,-0.049175,-0.044288,-0.047342,0
18.675,-0.999602,8.267202,8.845667,-0.242361,-0.112399,-0.068417,0
18.693,-0.658026,7.966305,4.198207,0.082161,-0.056963,-0.062461,0
18.712,-1.273580,7.159325,2.892324,0.011301,-0.105221,-0.121409,0
18.736,-1.616352,8.599805,4.024129,-0.070402,-0.143553,-0.054672,0
18.755,-0.853639,8.578269,7.785048,-0.346208,-0.202960,-0.039553,0
18.774,-1.584049,8.044071,2.416751,-0.013439,-0.122326,-0.050396,0
18.795,-1.199402,7.999206,3.962514,-0.116675,-0.156840,-0.014050,0
18.816,-1.032503,9.700503,9.816555,-0.116981,-0.104763,0.062766,0
18.835,-1.549951,7.820343,2.736791,0.081245,-0.056352,0.070708,0
18.857,-1.773082,8.581261,6.404988,-0.048258,-0.049327,0.103694,0
18.877,-1.294517,10.064212,8.491529,-0.015730,0.023213,0.221744,0
18.898,-0.665205,7.021140,2.041078,-0.051007,0.003971,0.206930,0
18.917,-2.082952,7.719844,3.725027,-0.062155,0.069333,0.222660,0
18.940,-0.963111,9.855438,3.909872,0.112857,0.192117,0.328798,0
18.958,-1.487738,8.305488,2.620141,0.241750,0.271071,0.333532,0
18.980,-0.913460,6.659225,5.828916,-0.050854,0.241902,0.393702,0
19.000,-1.509871,8.913264,3.761517,-0.082314,0.260687,0.397215,0
19.021,-1.345963,8.875577,6.348158,-0.024435,0.338725,0.452193,0
19.040,-0.320638,6.796813,1.446461,0.262366,0.463646,0.497702,0
19.060,-1.396212,8.729615,10.850852,0.228463,0.425315,0.457996,0
19.082,-1.131805,7.888538,-0.966102,-0.033598,0.498466,0.547335,0
19.101,-0.456431,7.155138,3.596412,0.079718,0.565508,0.514806,0
19.120,-0.652642,8.205587,10.375877,-0.038332,0.536339,0.514654,0
19.146,-1.722832,11.933605,6.322436,-0.104305,0.562148,0.459065,0
19.162,0.605384,5.276174,3.278765,0.017562,0.556345,0.461966,0
19.181,-1.797608,14.298311,15.787246,0.218690,0.553138,0.308487,0
19.206,0.916451,8.256434,5.476573,0.070860,0.496786,0.255341,0
19.222,0.169292,8.721839,11.310873,0.099724,0.385150,0.178220,0
19.244,-0.152542,11.502298,5.223532,0.272140,0.308334,0.021228,0
19.267,0.289532,7.165308,10.974681,0.265268,0.184787,-0.151189,0
19.285,1.105484,7.541579,8.723035,0.447917,0.165697,-0.216857,0
19.303,1.064208,9.481560,3.481557,0.546419,0.071624,-0.374155,0
19.326,0.663410,6.052645,-1.521237,0.614530,-0.043066,-0.512363,0
19.344,-0.096311,6.701698,1.825125,0.322842,-0.132710,-0.542295,0
19.369,0.622134,7.430313,0.996611,0.156687,-0.208458,-0.565966,0
19.387,0.101695,9.043674,6.757331,0.319330,-0.154854,-0.550389,0
19.406,0.550349,6.906284,1.801197,0.252287,-0.175471,-0.508850,0
19.428,-0.371486,6.124430,7.621140,0.057269,-0.233808,-0.518624,0
19.448,-1.202992,9.823135,-1.082154,0.149051,-0.210901,-0.474795,0
19.469,-0.798006,6.879365,8.812167,0.134848,-0.198836,-0.454483,0
19.489,-1.495514,10.020543,1.462015,0.270766,-0.162490,-0.430354,0
19.508,-2.648855,10.403993,5.369494,0.170889,-0.240375,-0.465021,0
19.530,-2.325824,9.040682,-3.011966,0.451276,-0.216704,-0.459523,0
19.549,-1.125225,8.871988,9.493524,-0.167530,-0.343764,-0.389884,0
19.570,-1.849652,10.327422,5.141578,-0.028863,-0.262366,-0.283594,0
19.590,-1.817947,8.804391,7.139585,-0.268017,-0.343153,-0.260076,0
19.609,-1.706083,8.773883,5.637490,-0.099113,-0.276569,-0.257785,0
19.631,-2.108077,9.141779,1.365105,-0.208610,-0.290924,-0.180663,0
19.650,-1.715654,8.148159,6.658029,-0.330172,-0.172111,-0.014508,0
19.674,-1.498505,6.809375,6.131010,-0.324064,-0.140346,0.012370,0
19.691,-1.249053,4.963911,0.917647,-0.436463,-0.091324,0.114384,0
19.713,-1.333400,6.963712,5.683552,-0.317650,-0.023366,0.135917,0
19.732,-1.475773,8.105687,4.308277,-0.282372,0.071166,0.226173,0
19.754,-1.496711,7.706684,2.351547,-0.322537,0.123547,0.285274,0
19.775,-1.189831,7.802396,2.978466,-0.326355,0.191201,0.326507,0
19.795,-1.311865,8.036893,4.772485,-0.202807,0.293673,0.366213,0
19.814,-0.727418,6.780661,4.849653,-0.362243,0.245262,0.305585,0
19.832,-0.739382,6.809375,2.193620,-0.210137,0.279013,0.271835,0
19.854,0.146560,7.570292,5.539384,-0.342542,0.205556,0.186008,0
19.873,-0.406780,10.545768,7.868199,0.063683,0.368962,0.133779,0
19.895,0.588036,5.151747,2.720041,-0.391106,0.104152,0.046273,0
19.915,-0.782453,6.908079,6.219544,-0.397215,0.055283,-0.091019,0
19.937,-0.342772,9.254242,10.099506,-0.301767,0.060323,-0.072235,0
19.955,-0.871586,8.341978,5.852246,-0.232892,-0.018937,-0.193491,0
19.979,-0.975673,9.096315,5.866603,-0.098044,-0.052687,-0.250607,0
19.996,-0.421735,8.352147,3.629912,-0.145386,-0.127823,-0.293368,0
20.020,-1.551147,10.009775,10.881361,-0.169515,-0.141721,-0.318261,0
20.038,-0.303290,7.861619,7.135995,-0.040012,-0.174860,-0.319940,0
20.056,-0.818345,7.298707,6.907481,0.132863,-0.180511,-0.409738,0
20.076,-0.616750,8.361719,-0.170489,0.213345,-0.257480,-0.450971,0
20.100,-0.625125,6.728019,9.888938,0.041844,-0.279776,-0.464105,0
20.118,-0.112463,7.758728,3.873980,0.107359,-0.315512,-0.463188,0
20.140,-0.671187,9.523434,6.415157,0.060781,-0.371711,-0.496633,0
20.159,-0.906880,7.034899,4.828716,0.218690,-0.349567,-0.519388,0
20.183,-1.107877,7.527820,6.119046,0.125380,-0.465632,-0.545044,0
20.200,-0.628714,7.778468,5.894719,0.205709,-0.508392,-0.564744,0
20.222,-1.505684,9.537193,5.760721,0.302073,-0.533438,-0.595899,0
20.241,-0.917049,4.872385,7.486544,0.383318,-0.572228,-0.585514,0
20.262,-2.096113,11.712269,1.999203,0.539088,-0.591775,-0.626595,0
20.281,-0.552144,7.800004,5.325227,0.244651,-0.670882,-0.545350,0
20.301,-2.133800,7.459026,5.388637,0.492815,-0.565203,-0.523358,0
20.322,-2.672783,11.079966,3.399004,0.482430,-0.561232,-0.431881,0
20.341,-1.499702,9.875777,2.595016,0.412945,-0.557109,-0.356134,0
20.367,-0.160319,8.849257,5.233103,0.308639,-0.478918,-0.225256,0
20.383,-2.527419,9.665807,3.169892,0.344986,-0.357509,-0.101709,0
20.403,-2.590829,10.473983,3.616751,0.385608,-0.250149,0.006720,0
20.423,-1.155733,7.458428,7.289734,-0.006567,-0.290772,0.108276,0
20.445,-1.660619,8.298309,7.247262,0.117439,-0.171195,0.177762,0
20.466,-1.986641,7.784450,2.090131,0.136834,-0.123395,0.228005,0
20.485,-1.709074,7.436893,7.054041,-0.137750,-0.143859,0.280540,0
20.508,-2.497509,8.718249,0.366102,0.071318,0.029016,0.394771,0
20.526,-1.945365,8.774481,7.981858,-0.125685,-0.002902,0.400116,0
20.548,-2.376671,7.704889,1.683949,-0.146608,0.089339,0.519846,0
20.568,-1.666003,8.992228,7.571489,0.027183,0.175318,0.521679,0
20.588,-2.254637,7.949555,-1.446461,-0.288786,0.163864,0.543059,0
20.609,-1.909472,8.276773,6.826125,-0.058490,0.248164,0.561079,0
20.629,-1.597209,8.794820,8.074580,-0.175318,0.293062,0.652862,0
20.650,-0.876970,7.341778,4.401597,-0.143095,0.318261,0.617584,0
20.669,-1.376471,8.663813,6.574280,-0.202349,0.325133,0.584292,0
20.688,-1.039083,8.413763,4.415954,-0.008399,0.375376,0.548098,0
20.712,-0.819542,7.939984,5.041677,0.062308,0.383165,0.487623,0
20.732,-0.739980,8.100303,6.084350,-0.059407,0.297033,0.420886,0
20.752,0.010169,7.573284,4.365705,-0.037568,0.255647,0.339488,0
20.770,-0.927817,8.758329,7.627720,-0.095142,0.203418,0.260381,0
20.792,-0.131605,8.136195,-0.131605,-0.010537,0.184328,0.228616,0
20.811,-0.299103,8.474779,10.278968,-0.202196,0.098502,0.168293,0
20.830,-0.488136,7.813762,2.882753,0.033598,0.139277,0.129503,0
20.852,-0.711267,7.900502,6.968498,-0.022449,0.112094,0.063835,0
20.871,-0.171087,8.649456,4.019344,0.059254,0.117591,0.063225,0
20.893,-0.641276,7.296913,5.797809,-0.074067,0.071318,0.031765,0
20.912,-0.909273,7.664211,6.021538,-0.053451,0.054520,0.024129,0
20.935,-1.549951,9.556933,3.269194,0.153480,0.112552,0.013439,0
20.953,-0.499502,7.569096,4.606782,-0.008247,0.070249,0.044746,0
20.975,-0.798605,7.744370,5.195416,0.052382,0.101709,0.040775,0
20.995,-0.949951,9.223733,6.536593,0.006872,0.097891,0.046884,0
21.014,-1.259821,8.551949,3.765106,0.139583,0.130725,0.033292,0
21.036,-0.485743,8.686544,5.612964,0.116675,0.138208,0.056658,0
21.055,-0.873978,9.098110,4.915456,0.006720,0.092088,0.051618,0
21.077,-0.346959,8.578269,7.544570,-0.001680,0.080481,0.058643,0
21.096,-1.021735,7.527222,1.881357,0.081550,0.079565,0.006567,0
21.119,-0.775275,8.385647,9.826724,-0.171653,0.015272,-0.010843,0
21.140,-0.665205,9.257831,1.654039,0.174402,0.077733,-0.026420,0
21.156,-0.779462,9.629316,7.782057,0.052382,0.033292,-0.049175,0
21.180,-0.611366,7.255038,3.592225,0.050702,0.000458,-0.058796,0
21.199,-0.503091,6.934998,5.498108,0.003818,-0.040775,-0.084452,0
21.217,-0.090329,9.010174,3.046661,0.051924,-0.050396,-0.102320,0
21.240,-0.662812,7.305287,4.481159,-0.077274,-0.115453,-0.143706,0
21.258,-0.645464,7.624729,6.487540,0.062919,-0.090103,-0.155618,0
21.280,-1.120439,9.241081,6.030511,0.010996,-0.128282,-0.181885,0
21.300,-0.641875,8.180463,1.475773,0.140957,-0.116675,-0.152411,0
21.321,-0.792623,9.891331,8.979665,-0.036652,-0.147829,-0.148287,0
21.343,-0.564706,7.543374,4.112066,0.164933,-0.088117,-0.123089,0
21.362,-0.857229,8.212766,4.603192,0.059712,-0.121562,-0.113926,0
21.382,-1.270589,9.202796,5.324628,0.033445,-0.103847,-0.067348,0
21.401,-0.576670,8.349754,3.896113,0.060934,-0.072540,-0.040775,0
21.420,-1.639682,9.662218,7.325028,-0.034056,-0.054062,-0.032070,0
21.444,-1.088734,7.291529,0.889532,0.109192,-0.017104,0.023518,0
21.461,-2.012364,8.609376,5.688936,-0.140041,-0.070097,0.051160,0
21.482,-1.215554,9.186645,4.780262,-0.023213,-0.001222,0.117286,0
21.508,-0.815953,8.277970,6.951150,-0.020311,0.033445,0.120799,0
21.522,-1.600798,8.647661,3.468396,-0.110414,0.036194,0.170584,0
21.548,-0.957129,8.851649,5.752346,-0.032681,0.093920,0.203113,0
21.566,-0.908076,8.478369,5.162515,-0.064599,0.110261,0.212581,0
21.585,-1.727618,7.451250,5.821737,-0.137445,0.118355,0.226478,0
21.607,-0.831506,7.015158,4.570291,0.074373,0.188757,0.260381,0
21.626,-0.975673,7.560721,2.179862,0.161879,0.206320,0.222813,0
21.647,-1.652244,8.279764,7.412964,-0.255494,0.085063,0.190590,0
21.668,-1.453640,8.773284,2.865405,-0.015730,0.120799,0.186772,0
21.686,-0.881157,7.915457,7.164111,-0.105680,0.044440,0.157909,0
21.707,-0.544965,9.541979,3.751946,0.005803,0.036499,0.122631,0
21.726,-0.015553,7.984849,2.938984,0.129198,0.063377,0.092241,0
21.750,-0.482154,7.887940,6.767501,0.006261,0.036041,0.062919,0
21.767,0.066999,9.232108,5.425725,0.061392,0.024282,0.039401,0
21.790,-0.841675,8.414361,5.813961,0.041692,-0.009468,0.000458,0
21.809,-0.722034,8.365308,5.149354,0.035736,-0.005803,0.034361,0
21.831,-0.973281,7.852646,3.904488,-0.126296,-0.040623,0.066279,0
21.852,-2.164906,8.432905,6.566504,-0.056505,0.029627,0.146302,0
21.868,-1.462613,8.603394,5.621937,0.082009,0.062308,0.161879,0
21.890,-1.333999,7.958528,2.247459,-0.055283,0.047189,0.185856,0
21.910,-1.519442,9.958928,7.840682,0.142484,0.195171,0.302073,0
21.931,-0.806381,7.740183,3.108277,-0.109498,0.139124,0.321162,0
21.951,-2.517249,9.063414,5.502295,0.004429,0.276416,0.403018,0
21.972,-1.212563,7.506883,6.744769,-0.112399,0.253203,0.448069,0
21.991,-1.119841,8.688339,3.450450,0.012523,0.344222,0.470519,0
22.013,-1.219143,8.357532,7.013363,0.064752,0.400269,0.500298,2
22.032,-1.576870,8.306684,4.326821,0.220980,0.469450,0.529009,2
22.056,-2.151148,7.570891,4.269394,0.065210,0.447153,0.493273,2
22.072,-1.577468,8.498110,5.676373,0.057879,0.472198,0.552222,2
22.093,-0.919442,8.822935,4.657031,0.018173,0.447000,0.557109,2
22.115,-1.440479,8.294122,5.897710,-0.017104,0.420886,0.498466,2
22.133,-0.857827,8.889337,6.006583,0.106596,0.459523,0.515417,2
22.153,-0.943969,7.301100,6.341578,0.333379,0.524275,0.442877,2
22.176,-1.473979,8.555537,2.088336,-0.286496,0.381180,0.481972,2
22.194,0.220140,9.088538,6.566504,0.210443,0.544128,0.494190,2
22.219,0.254237,7.591828,5.671588,0.077427,0.482125,0.436463,2
22.237,-0.701097,8.315059,5.927022,0.097280,0.467006,0.404392,2
22.256,-1.749153,8.219346,1.709672,-0.057421,0.395230,0.357050,2
22.280,-0.826720,8.498110,6.534799,0.002596,0.423940,0.379347,2
22.296,2.084148,8.598010,4.192823,-0.012523,0.412181,0.375987,2
22.320,-0.945763,8.503493,6.828517,0.104458,0.446237,0.244499,2
22.337,1.588236,8.243873,3.889533,0.099266,0.321620,0.187688,2
22.358,-0.529412,8.377871,7.457830,0.059407,0.271988,0.104916,2
22.380,0.767498,9.683753,-0.954138,0.108276,0.239306,0.029474,2
22.400,0.425922,7.380063,9.600603,-0.097433,0.073915,-0.076358,2
22.417,0.892523,7.795816,5.704489,0.156381,0.078802,-0.111025,2
22.440,-0.747757,7.032506,4.094718,0.073915,-0.107207,-0.318261,2
22.459,-0.123230,8.638688,4.502096,-0.050702,-0.170737,-0.289703,2
22.481,-0.951745,8.382058,2.654238,-0.080634,-0.224035,-0.291077,2
22.501,-1.267598,9.119047,8.255836,0.028863,-0.098807,-0.130725,2
22.522,0.193220,7.004988,3.128616,0.114079,-0.053451,-0.089339,2
22.543,-1.286142,10.319646,3.218346,-0.141262,0.025504,0.093004,2
22.565,-0.466002,8.556135,6.432506,-0.012675,0.128129,0.144470,2
22.587,-1.184447,7.978269,5.077569,-0.040928,0.155923,0.164170,2
22.602,-1.018146,7.574480,4.014558,0.017104,0.257785,0.279623,2
22.624,-1.847857,8.725428,6.291927,-0.148287,0.249844,0.297186,2
22.643,-0.775275,8.839685,3.794419,-0.134390,0.267406,0.359952,2
22.661,-0.783051,8.045866,7.627720,-0.110719,0.297186,0.363006,2
22.683,-0.513859,8.552547,5.373682,0.268322,0.421344,0.386677,2
22.703,-0.646660,8.349754,4.827520,0.031154,0.390037,0.394466,2
22.724,-0.982852,8.386245,3.030510,0.040470,0.401185,0.421191,2
22.747,-0.230309,8.087142,5.628517,-0.001374,0.452956,0.445168,2
22.766,-0.685544,9.698709,6.247062,-0.077885,0.440892,0.447611,2
22.785,-0.332004,8.157132,7.113862,0.124616,0.533438,0.486859,2
22.809,-1.237687,7.762317,2.397608,-0.053451,0.525191,0.504727,2
22.825,-1.079163,8.784650,5.460421,-0.032223,0.552374,0.533438,2
22.847,-0.827318,8.065009,5.038686,-0.138666,0.513585,0.488081,2
22.866,-0.720240,8.188837,5.163711,-0.056200,0.543212,0.494648,2
22.885,-0.497109,7.809575,6.293124,0.018479,0.545197,0.446542,2
22.908,-1.147358,8.944969,5.949753,0.045204,0.525038,0.443182,2
22.928,0.303290,8.508878,3.486941,0.088881,0.510225,0.409890,2
22.949,-0.098704,8.917452,3.545565,0.060017,0.490677,0.358119,2
22.967,0.275773,7.360920,6.280561,-0.088728,0.396909,0.299171,2
22.989,0.133400,8.804989,4.472186,-0.000764,0.379194,0.221438,2
23.010,0.888934,8.256434,6.350551,0.023976,0.380569,0.212428,2
23.030,0.244068,7.548159,5.766104,0.082161,0.379805,0.178831,2
23.050,-1.080359,8.490333,5.102096,0.101862,0.378125,0.157756,2
23.069,-0.613161,8.971291,4.039084,0.103847,0.378125,0.195935,2
23.091,-1.001994,8.698508,4.937590,-0.045204,0.323911,0.183107,2
23.111,-0.281157,7.914859,5.423931,0.049480,0.388968,0.222049,2
23.129,-0.958924,9.013762,4.449454,0.059407,0.399506,0.241444,2
23.151,-1.322633,8.035098,5.113462,0.004429,0.426689,0.278707,2
23.170,-1.170090,8.326425,5.124828,0.043524,0.465174,0.337808,2
23.193,-1.125225,10.057631,2.483750,0.009621,0.478918,0.354760,2
23.213,-0.869193,8.423334,6.435496,-0.084147,0.455400,0.331852,2
23.233,0.058624,7.358528,5.861817,0.062614,0.510530,0.365603,2
23.252,0.091525,8.575876,4.919045,0.000916,0.486707,0.348651,2
23.275,0.221934,8.516654,6.221339,0.081703,0.478002,0.303753,2
23.293,0.267996,8.407183,1.360918,0.025198,0.449749,0.288939,2
23.314,0.528216,8.350951,9.132806,-0.127365,0.398742,0.231976,2
23.334,0.981655,8.294122,2.603391,0.066584,0.434630,0.222660,2
23.355,-0.689133,9.795019,7.542177,0.081703,0.451887,0.180205,2
23.374,0.025723,7.625926,3.329015,0.116981,0.465021,0.195477,2
23.397,-0.805185,8.550154,6.271588,0.088575,0.456163,0.187535,2
23.417,-0.483350,8.651250,4.027121,0.102778,0.474184,0.198073,2
23.439,-0.818944,8.266604,5.382056,0.061392,0.508087,0.249844,2
23.460,-1.019342,8.586644,5.130212,0.057421,0.516792,0.258701,2
23.475,-0.599402,8.312068,4.179663,-0.026878,0.502284,0.279165,2
23.497,-1.543371,8.044670,5.554339,0.070249,0.556651,0.298560,2
23.516,-0.600000,8.683554,2.837289,0.048258,0.561843,0.317039,2
23.542,-0.722034,8.358130,5.995815,-0.012828,0.554971,0.328645,2
23.557,-0.046062,7.768299,4.789235,0.023824,0.585819,0.309098,2
23.580,-0.151346,8.046464,6.352944,-0.002902,0.563065,0.273667,2
23.598,-0.230309,8.058429,4.859225,-0.038179,0.522289,0.230449,2
23.621,0.772882,8.604590,3.821338,0.178067,0.518319,0.194866,2
23.640,0.431904,7.713862,3.765705,-0.087048,0.420580,0.096517,2
23.661,-0.635294,9.135199,9.445667,-0.038332,0.341932,0.002138,2
23.681,2.088336,6.802795,0.407378,-0.208305,0.195019,-0.145233,2
23.701,-0.248255,9.101699,8.151749,0.138055,0.253814,-0.188605,2
23.720,0.664607,8.234301,2.233102,-0.011759,0.077427,-0.280845,2
23.744,0.220140,8.270193,5.466403,-0.036957,0.048258,-0.295964,2
23.760,0.155533,8.379066,4.945964,-0.064904,-0.052534,-0.348040,2
23.784,-0.227916,8.523234,4.311268,0.071166,-0.029016,-0.365755,2
23.801,-0.800997,8.626125,5.232505,-0.107207,-0.101098,-0.326660,2
23.827,-0.872782,8.173284,6.453443,-0.075747,-0.077427,-0.290161,2
23.842,-0.382253,7.611569,4.408177,0.043066,-0.010232,-0.222966,2
23.863,-0.974477,8.529815,5.724230,-0.121409,-0.030238,-0.188605,2
23.885,-0.439681,8.228917,-0.236889,0.037110,0.035583,-0.113010,2
23.904,-0.473181,8.948559,7.933403,-0.116217,0.045509,-0.076358,2
23.923,0.050249,7.948359,6.222535,-0.085521,0.093462,-0.016951,2
23.945,-0.538385,7.405786,5.837889,-0.140652,0.109803,-0.011606,2
23.964,-0.452842,8.131410,4.880760,-0.036805,0.135154,0.021228,2
23.986,-0.237488,8.318049,5.181059,0.004123,0.136223,0.014355,2
24.005,-1.502094,9.094521,4.758726,-0.085979,0.076358,-0.021991,2
24.030,-0.678963,7.826923,3.287738,-0.040012,0.068722,0.016951,2
24.047,-0.947558,8.539386,7.560123,-0.101862,0.049938,0.014508,2
24.064,-3.212364,20.383858,39.711884,-0.487165,0.258549,-0.015577,2
24.087,1.624727,0.981655,7.845467,1.538157,0.365297,0.251829,2
24.105,-3.502494,7.689934,-15.907485,2.625802,0.475864,0.132100,2
24.127,-1.466202,13.261024,7.521240,-0.655305,0.321926,0.323147,2
24.146,-0.626920,7.176673,2.767299,-0.323758,0.370948,0.385303,2
24.169,-1.110270,6.805188,5.932405,0.227853,0.398131,0.413861,2
24.187,-1.158126,8.531610,2.732005,0.389426,0.458149,0.426842,2
24.210,-0.869791,4.533203,-3.857828,0.453262,0.491441,0.470366,2
24.229,0.081356,3.589832,-7.326823,0.748767,0.458454,0.425620,2
24.248,-0.230309,7.520043,2.271985,0.256258,0.395382,0.355371,2
24.271,-1.392623,9.079565,15.995421,-0.776256,0.406683,0.371406,2
24.289,0.957727,8.577671,6.536593,0.518166,0.630412,0.427605,2
24.308,0.696910,4.972285,-0.049053,-0.192270,0.333074,0.388052,2
24.330,-1.395614,8.747561,8.548359,-0.354607,0.330172,0.263588,2
24.349,0.060419,9.823733,3.171686,0.033750,0.426078,0.325591,2
24.372,0.132802,3.754937,-3.894917,0.181732,0.327118,0.213039,2
24.392,0.376870,4.633103,-5.563313,0.243735,0.299935,0.191048,2
24.412,-0.196211,11.143973,5.684150,-0.361632,0.262366,0.167377,2
24.431,-0.309272,8.923434,8.909675,-1.028544,0.317955,0.193644,2
24.453,0.836291,6.489933,1.835893,0.270766,0.430507,0.246331,2
24.472,0.823131,6.272785,5.581857,-0.683710,0.264657,0.156381,2
24.494,-0.964308,9.975080,6.445666,-0.375529,0.239764,0.104305,2
24.513,-1.297508,13.032509,-0.848256,-0.947146,0.046273,0.045204,2
24.532,-1.430908,12.908082,-2.805584,0.374155,0.121562,-0.023060,2
24.554,-5.464609,11.735599,38.337803,-1.832594,0.202654,-0.076664,2
24.577,-0.832104,2.073381,-4.051049,-0.777173,0.164170,0.243735,2
24.595,-5.335995,10.161121,9.445069,-0.424856,0.404240,0.323300,2
24.615,-1.539183,9.777073,-0.626920,-0.899651,0.333379,0.624457,2
24.636,2.289333,8.821140,5.032704,-0.440586,0.543212,0.694706,2
24.655,2.927619,7.138987,5.761319,-0.223729,0.592692,0.706312,2
24.679,1.232902,6.661020,5.367700,-0.549473,0.603840,0.603687,2
24.697,-1.035494,5.650053,9.535398,-0.262672,0.510378,0.427758,2
24.719,-0.138186,5.176872,6.720840,-0.008399,0.533743,0.420122,2
24.737,0.905683,4.842475,5.083552,0.231060,0.506101,0.294284,2
24.755,0.705883,10.864013,3.756732,0.100487,0.449902,0.236405,2
24.783,0.607777,10.068399,2.577070,0.107818,0.374155,0.181427,2
24.798,0.509671,6.028119,6.161518,0.054520,0.305891,0.094684,2
24.818,-0.034098,7.637292,7.222137,0.116981,0.281151,0.021075,2
24.840,-0.502493,6.959525,7.402197,-0.028100,0.190895,0.024129,2
24.857,-0.168096,5.951548,10.046865,-0.245109,0.120493,-0.008247,2
24.880,1.213161,4.371089,4.300500,0.322537,0.224646,0.015424,2
24.900,-0.583251,6.452246,5.547161,0.655611,0.368504,0.011148,2
24.921,-0.799203,5.762515,7.756933,0.380416,0.220217,0.018173,2
24.940,-0.259023,10.816754,3.888337,0.492815,0.186466,-0.052229,2
24.961,1.292124,9.044869,0.845863,0.644004,0.181274,-0.071318,2
24.982,1.655235,7.896913,4.796413,0.460439,0.051160,-0.190284,2
25.000,0.179462,7.033702,4.936393,0.524427,0.009621,-0.252440,2
25.021,-0.546760,8.752945,8.967701,0.420886,-0.085979,-0.310167,2
25.040,-0.327817,15.495321,-0.787239,1.015715,0.004581,-0.175776,2
25.062,0.242273,13.289139,-12.506087,1.478751,-0.396757,-0.510225,2
25.082,2.961716,3.972684,29.392836,-2.323424,-0.762512,-0.083078,2
25.104,-0.732204,10.031909,-3.742375,-0.948368,-0.174707,-0.210748,2
25.123,-4.666004,7.557730,7.630113,-0.465632,-0.118813,-0.151647,2
25.144,-1.103091,7.449455,7.974082,0.544128,0.068264,-0.033292,2
25.167,-0.012562,10.136595,1.821536,0.325285,0.100029,0.057574,2
25.187,1.106082,7.061220,4.610969,-0.264352,0.045662,0.196088,2
25.204,-0.556929,7.393822,6.648458,-0.148287,0.200211,0.236557,2
25.227,-1.145564,7.846663,6.507879,0.100029,0.264963,0.222049,2
25.245,-0.933799,8.274381,3.972085,0.073456,0.270613,0.246179,2
25.264,-0.913460,8.676374,4.519444,-0.097280,0.214261,0.253509,2
25.288,-0.786042,8.060223,7.119844,-0.027031,0.158825,0.209527,2
25.305,-1.309472,8.957532,5.447859,0.101862,0.125533,0.168141,2
25.326,-1.515853,8.404790,4.355536,0.110719,0.100487,0.215330,2
25.349,-0.718445,8.267800,4.125226,0.012217,0.109498,0.252440,2
25.368,-0.084945,9.104691,4.886144,0.041844,0.197462,0.337808,2
25.391,-0.119043,8.740981,2.500500,0.149815,0.322689,0.405156,2
25.410,-1.344766,8.636893,5.601000,0.048106,0.376140,0.459676,2
25.428,-1.570290,9.013165,4.197011,0.112552,0.488845,0.596815,2
25.450,-2.011766,8.370093,5.260022,-0.070402,0.525955,0.688597,2
25.468,-0.547956,7.570891,7.225726,-0.040928,0.645226,0.803745,2
25.490,-1.173679,7.603792,5.155935,-0.089186,0.730900,0.858418,2
25.512,-0.290130,9.205189,6.941578,-0.056352,0.792750,0.887434,2
25.530,-1.037289,8.053044,3.072384,0.044288,0.852309,0.879493,2
25.554,-0.529412,7.447062,5.941977,-0.015577,0.833525,0.853836,2
25.576,0.510269,8.410771,3.677768,0.047037,0.828180,0.822529,2
25.592,-0.885344,9.281160,8.353344,0.027031,0.838565,0.758541,2
25.615,0.600000,7.410572,3.438486,0.031001,0.791528,0.744186,2
25.632,0.687338,8.440681,6.934998,-0.042913,0.738994,0.675158,2
25.654,0.209970,9.363713,4.762315,0.027183,0.720362,0.575435,2
25.673,0.743570,7.788040,7.384251,-0.026725,0.651793,0.444710,2
25.698,1.052244,8.094321,5.818747,0.165850,0.659429,0.420122,2
25.714,1.435694,8.720044,2.344966,0.051160,0.544586,0.333532,2
25.736,-0.223729,9.364909,7.449455,-0.057574,0.503505,0.228158,2
25.755,0.940978,6.454041,2.529812,0.130267,0.538630,0.252440,2
25.774,0.177069,9.090333,5.435297,0.153022,0.519540,0.225867,2
25.795,-0.845265,9.454042,5.767899,0.210443,0.544739,0.213192,2
25.817,0.316451,6.960123,8.081161,-0.041233,0.440586,0.182190,2
25.837,-0.876371,8.762517,4.418945,0.218995,0.531452,0.166613,2
25.855,0.391227,8.709276,2.777469,0.224798,0.538325,0.225256,2
25.877,0.407378,8.183454,5.953941,0.102167,0.485943,0.188910,2
25.896,0.244666,8.574081,4.182654,0.027642,0.418290,0.102778,2
25.917,0.859622,7.685746,3.247658,0.049785,0.403476,0.084147,2
25.936,0.229113,8.060223,3.815356,0.078343,0.400575,0.056047,2
25.960,0.872782,8.212168,5.651249,0.091019,0.363770,0.002291,2
25.978,0.737588,7.877172,6.313463,0.040623,0.320551,-0.032376,2
26.000,0.213559,9.735797,7.925627,0.069486,0.289855,-0.063835,2
26.018,0.992423,7.171888,-0.032303,0.129503,0.271988,-0.074678,2
26.043,-0.308076,9.662816,9.219545,-0.073304,0.233198,-0.134848,2
26.060,1.033699,8.374281,1.508675,0.144622,0.271224,-0.096822,2
26.081,0.060419,7.211369,6.142376,0.051771,0.201738,-0.163254,2
26.100,0.277567,10.042078,7.293324,0.175929,0.226631,-0.186772,2
26.120,0.489332,7.429714,3.717848,0.123395,0.175776,-0.184328,2
26.143,-0.745364,8.656036,6.589834,0.148440,0.146913,-0.215024,2
26.161,-0.293719,8.780462,3.274578,0.257174,0.177762,-0.221286,2
26.180,-0.816551,8.104490,4.039683,0.117591,0.086132,-0.216093,2
26.200,1.006780,9.072387,7.102496,-0.064752,0.013286,-0.222813,2
26.225,0.186640,7.386643,2.928217,0.058643,-0.007330,-0.236252,2
26.248,0.086142,9.809377,6.894320,0.138361,-0.050396,-0.292146,2
26.262,0.521037,7.724031,3.047260,0.059865,-0.086132,-0.306501,2
26.284,0.895514,9.028718,6.780661,-0.112552,-0.142331,-0.324216,2
26.304,1.343570,7.981858,1.527219,0.007636,-0.176845,-0.387288,2
26.326,1.475175,8.494520,6.178268,-0.052993,-0.201891,-0.416457,2
26.346,0.612563,8.329415,3.114259,0.102473,-0.147371,-0.428827,2
26.365,0.992423,8.566305,6.969096,0.076511,-0.153480,-0.410501,2
26.384,0.796810,6.639484,-1.268196,-0.018173,-0.157756,-0.403629,2
26.406,-0.553340,10.162916,7.010970,-0.053756,-0.170737,-0.395382,2
26.425,0.092722,9.725029,2.825325,0.156687,-0.097433,-0.351705,2
26.446,-0.089731,8.949755,4.547559,0.339488,-0.073915,-0.324064,2
26.468,-0.369691,7.919046,6.272186,-0.133321,-0.114537,-0.269697,2
26.487,0.262014,8.401798,3.786044,-0.151494,-0.094226,-0.216552,2
26.509,1.880759,8.209774,8.756535,0.090103,-0.005803,-0.249080,2
26.528,0.453440,7.972885,-1.016950,0.179900,0.046273,-0.235947,2
26.548,-0.586840,9.798609,9.108279,-0.204334,0.012217,-0.180663,2
26.568,-1.554138,7.490731,4.436892,0.043371,0.136223,-0.133016,2
26.588,-1.688136,7.500303,7.307680,-0.084605,0.061850,-0.117897,2
26.611,-0.658624,8.874381,4.967500,0.072693,0.077580,-0.137292,2
26.629,-0.974477,8.547162,3.958925,-0.026114,0.004123,-0.150884,2
26.651,-0.215354,8.741579,5.577071,-0.016341,-0.043524,-0.219911,2
26.672,-1.406381,8.126026,1.925624,0.012217,-0.083688,-0.242055,2
26.691,0.888934,8.544769,5.487340,-0.063683,-0.168751,-0.268170,2
26.713,-0.517448,9.873384,4.381856,0.064294,-0.154091,-0.341626,2
26.731,-0.363111,7.762915,3.703491,-0.003360,-0.201585,-0.333838,2
26.753,-0.473779,8.680562,4.861019,0.043982,-0.230907,-0.367893,2
26.774,-0.470788,10.109675,1.822134,0.021686,-0.281456,-0.380263,2
26.794,-0.159721,8.165507,6.508478,-0.189979,-0.369115,-0.392175,2
26.813,-0.378066,8.114061,3.896712,0.010996,-0.305127,-0.371558,2
26.835,-0.706481,9.061620,3.454638,0.160352,-0.275805,-0.351858,2
26.854,-1.167099,8.888738,6.421738,-0.062766,-0.313679,-0.349720,2
26.876,-0.869791,7.837690,3.632305,0.031765,-0.285121,-0.272751,2
26.895,-2.218147,8.166703,4.932804,0.051618,-0.257480,-0.247400,2
26.914,-1.107877,9.223135,6.194419,0.048564,-0.221286,-0.142637,2
26.935,-1.671387,9.216555,0.868595,0.085827,-0.158519,-0.087812,2
26.957,-0.743570,8.891130,7.554739,0.006872,-0.122784,-0.034514,2
26.977,-1.715056,6.437291,0.695713,0.101862,-0.028711,0.038484,2
26.995,-1.833500,9.540184,8.399405,0.116522,-0.006872,0.099113,2
27.018,-2.413760,9.440882,2.474777,0.009621,0.040317,0.173486,0
27.036,-1.311865,7.896913,4.582255,0.002902,0.092393,0.232129,0
27.061,-1.558326,9.044271,5.257031,-0.029474,0.173638,0.323911,0
27.081,-1.772483,8.715259,3.305685,0.053909,0.203113,0.337808,0
27.100,-1.182054,8.062616,5.308477,-0.071318,0.165697,0.351705,0
27.119,-0.698704,7.989635,3.939184,0.009010,0.214261,0.337503,0
27.141,-0.875773,9.344570,4.884349,0.065363,0.239917,0.354302,0
27.160,-1.375275,8.155936,4.667201,-0.086743,0.189979,0.313832,0
27.180,-1.451845,7.590631,4.454239,-0.117591,0.160963,0.287259,0
27.200,-1.213759,8.577073,4.743173,-0.158061,0.124158,0.297949,0
27.220,-1.202393,9.076574,4.025326,0.084299,0.216704,0.275042,0
27.241,-1.545763,8.440084,6.013163,-0.018784,0.217621,0.295659,0
27.260,-0.584447,8.734999,4.945964,0.045815,0.248164,0.328493,0
27.281,-1.947758,9.387043,3.295515,-0.067042,0.231976,0.335823,0
27.300,-1.499103,7.601399,6.029913,-0.107054,0.243582,0.385608,0
27.327,-2.358127,9.524631,3.053840,-0.012370,0.302531,0.388968,0
27.341,-2.910869,9.280562,3.291926,0.023824,0.352011,0.447611,0
27.362,-2.402992,7.863413,4.691129,-0.104458,0.331394,0.498924,0
27.384,-1.165903,9.011969,5.436493,-0.019395,0.396299,0.518930,0
27.403,-1.242473,8.462815,5.426323,0.004429,0.452345,0.524122,0
27.424,0.627518,8.346764,3.203990,0.001222,0.484568,0.573602,0
27.443,0.350549,8.011768,5.523233,0.000305,0.506560,0.497702,0
27.462,0.007777,9.506086,4.933402,0.000916,0.511447,0.471435,0
27.484,0.307478,7.585846,5.705686,-0.037110,0.471129,0.381790,0
27.507,0.058026,8.692527,6.780661,-0.016341,0.480751,0.345291,0
27.525,-0.621536,7.502696,5.930013,-0.056810,0.432340,0.298255,0
27.547,-0.489332,7.843074,4.104887,0.059407,0.443182,0.239001,0
27.566,-0.750748,9.397213,5.422136,0.248317,0.466395,0.188452,0
27.588,-0.828515,7.512267,4.320241,0.023976,0.300393,0.116675,0
27.608,-0.004786,8.632706,6.122037,0.161879,0.271071,0.003512,0
27.628,-1.237687,8.238488,3.954738,0.010996,0.181427,-0.026725,0
27.648,0.828515,8.785847,5.103891,0.018021,0.116828,-0.043066,0
27.667,0.483948,8.796615,3.065804,0.098197,0.105832,-0.097891,0
27.689,-0.973281,9.490533,7.753942,-0.038790,0.027489,-0.177304,0
27.710,0.277567,7.518847,2.715255,0.152563,0.077427,-0.145997,0
27.729,-0.507877,9.032308,5.651249,-0.013134,0.019700,-0.182343,0
27.748,-0.176471,8.685348,2.705086,0.140041,0.074831,-0.144622,0
27.770,-0.623928,8.205587,5.301299,-0.029627,0.039553,-0.135612,0
27.789,-0.897907,9.207582,5.861817,-0.045815,0.041692,-0.130420,0
27.813,-0.101695,6.827321,4.794020,0.136528,0.131489,-0.083383,0
27.831,-0.573081,8.840881,4.817350,0.095142,0.162795,-0.055741,0
27.852,-0.985245,8.881559,4.497310,0.017562,0.140041,-0.033598,0
27.871,-0.665803,9.357133,3.026322,0.092699,0.170126,-0.039248,0
27.893,-0.252443,8.493324,6.205786,0.004276,0.134390,-0.033750,0
27.914,-0.230309,9.293125,2.672185,-0.128434,0.064294,-0.095142,0
27.934,0.320638,8.515457,4.707280,0.064599,0.107818,-0.107665,0
27.953,0.053839,8.566903,1.357329,0.006567,0.003971,-0.225104,0
27.972,-0.221336,9.162716,8.110473,-0.018784,-0.058490,-0.258549,0
27.994,-0.248255,7.712666,3.967300,0.106596,-0.078343,-0.306196,0
28.015,-0.106481,7.987840,5.736194,-0.023976,-0.226478,-0.369268,0
28.035,-0.169890,8.401200,5.168497,-0.084757,-0.264504,-0.389732,0
28.054,-0.060419,7.875378,3.352345,0.174249,-0.199600,-0.381027,0
28.076,-0.552144,9.263813,6.820143,-0.273515,-0.287259,-0.366672,0
28.095,-0.153739,7.772486,4.319643,-0.054520,-0.231212,-0.313984,0
28.117,-0.133400,7.522436,6.187840,-0.044288,-0.212581,-0.309708,0
28.136,-0.247657,8.411369,4.119843,0.065973,-0.154854,-0.275042,0
28.155,-0.820140,9.197412,6.242874,0.114384,-0.116828,-0.235183,0
28.177,-0.247657,7.584051,5.183452,-0.135612,-0.166461,-0.189215,0
28.196,-1.200001,8.591430,5.301299,-0.069944,-0.083230,-0.133779,0
28.217,-1.556531,9.121440,4.661817,-0.074678,-0.044440,-0.057116,0
28.240,-1.420738,8.109276,2.861816,0.043066,-0.007789,-0.051924,0
28.257,-1.397408,8.643474,6.341578,-0.056963,0.006872,0.001374,0
28.280,-1.561317,8.337193,2.831307,-0.003512,0.058948,0.049785,0
28.300,-1.369891,9.090932,7.186843,-0.042302,0.106443,0.078191,0
28.320,-1.402194,8.544769,1.958525,0.098655,0.186925,0.138514,0
28.340,-1.293919,7.849655,6.555736,0.041233,0.206472,0.176082,0
28.360,-0.875175,8.793025,4.367499,0.023213,0.240833,0.183565,0
28.380,-0.534198,8.228917,5.078168,-0.007789,0.239917,0.173180,0
28.401,-0.967299,8.962317,4.600202,0.022449,0.242971,0.135765,0
28.420,-0.260219,6.869794,3.587439,0.028405,0.195782,0.092851,0
28.442,-0.373879,9.497113,6.681359,-0.063530,0.121562,0.011301,0
28.461,0.367298,7.369894,4.122833,-0.019090,0.075289,-0.064141,0
28.480,0.096311,8.446664,6.123233,0.058643,0.032834,-0.151189,0
28.502,-0.430110,7.975278,3.333800,0.039401,-0.084147,-0.276111,0
28.521,-0.019741,9.304491,7.399804,0.010996,-0.162185,-0.317192,0
28.548,0.526421,8.487342,3.982255,0.116675,-0.246484,-0.460592,0
28.563,-0.065204,7.737790,5.278567,-0.050549,-0.303600,-0.450360,0
28.583,0.187238,8.952147,5.039285,0.032529,-0.342084,-0.502284,0
28.604,-0.997807,7.969296,2.435295,-0.027183,-0.404087,-0.533743,0
28.623,-0.209970,8.858828,6.766902,0.087048,-0.383470,-0.517708,0
28.644,-0.477966,7.962117,5.193023,-0.047189,-0.459065,-0.496480,0
28.664,-0.646660,8.463413,4.098905,0.135307,-0.397368,-0.498466,0
28.687,-1.284348,9.078967,4.810172,0.018021,-0.442724,-0.479071,0
28.706,-0.890130,8.085348,3.017948,0.081398,-0.426078,-0.430202,0
28.724,-1.262812,8.953344,4.973482,0.009316,-0.430354,-0.398284,0
28.747,-1.313061,8.828918,7.164111,-0.047647,-0.433103,-0.349720,0
28.764,-1.786242,8.134998,5.359923,0.021075,-0.438143,-0.301156,0
28.787,-1.513460,8.482556,3.954738,0.081550,-0.420733,-0.299935,0
28.806,-1.596611,7.316055,1.695913,0.026878,-0.418595,-0.234725,0
28.827,-2.011766,10.379466,9.569496,-0.124616,-0.441655,-0.173944,0
28.848,-2.538785,8.044670,2.266003,0.072082,-0.353691,-0.116981,0
28.869,-1.179063,7.396813,5.710471,-0.014661,-0.325896,-0.007789,0
28.888,-2.671587,9.869197,1.999802,0.187383,-0.190590,0.054825,0
28.911,-1.978864,9.638887,5.455038,-0.194255,-0.191353,0.205403,0
28.928,-2.504089,8.277970,5.033901,-0.060170,-0.014355,0.351247,0
28.950,-2.575275,7.746165,4.920241,-0.076664,0.094073,0.475253,0
28.969,-2.902494,9.512068,3.020340,0.100640,0.254425,0.565661,0
28.988,-1.667797,7.468598,3.847061,-0.098044,0.280082,0.650571,0
29.011,-1.389632,8.027322,6.253044,-0.072540,0.355218,0.657443,0
29.031,-1.872384,8.432307,4.745565,-0.092546,0.376140,0.650418,0
29.051,-0.550947,8.006385,4.503891,-0.014508,0.413708,0.656374,0
29.073,-0.156132,7.675577,5.410770,0.016493,0.407141,0.556345,0
29.091,-0.943969,9.235099,7.177870,-0.082467,0.345444,0.486859,0
29.114,0.678963,7.743174,1.971088,0.067653,0.326507,0.417679,0
29.132,0.113061,6.204589,-0.255434,-0.150273,0.196240,0.260076,0
29.151,-0.538385,10.309476,13.253246,-0.301309,0.106596,0.172569,0
29.174,0.066999,7.445866,3.997210,-0.075289,0.030696,0.030391,0
29.192,-0.777667,6.879365,5.361717,-0.009163,-0.031765,-0.040470,0
29.214,-1.146760,9.132806,2.101496,0.079412,-0.071013,-0.088270,0
29.233,-1.130010,8.742178,8.391031,0.065363,-0.061850,-0.093920,0
29.255,-1.501496,8.303095,2.782853,-0.029780,-0.119882,-0.046273,0
29.276,-0.617946,7.746763,5.953941,-0.052534,-0.108123,-0.021838,0
29.296,-1.268196,9.514461,2.885146,0.154243,0.022907,0.014508,0
29.315,-2.041676,8.928818,4.773681,-0.200364,-0.035125,0.062919,0
29.336,-0.664607,7.944769,3.739384,0.012675,0.120493,0.234725,0
29.356,-2.380858,9.317652,6.613762,-0.120646,0.158367,0.256105,0
29.376,-0.947558,7.392625,6.026922,-0.085827,0.215635,0.330172,0
29.396,-0.680160,8.632706,4.523631,-0.119271,0.275042,0.406989,0
29.420,-0.735195,8.428120,4.179065,-0.049633,0.331700,0.382859,0
29.437,-1.022334,8.693125,5.590232,-0.124464,0.303142,0.358272,0
29.460,-0.547956,8.481958,4.492525,0.047647,0.354607,0.342695,0
29.480,-1.064208,7.950751,4.971687,-0.095295,0.301767,0.292452,0
29.500,-0.131007,8.310273,3.113062,-0.021075,0.303447,0.274736,0
29.520,-0.559920,7.154540,9.252447,-0.036346,0.271835,0.211665,0
29.540,-0.656232,8.307880,1.707877,0.110261,0.293215,0.183870,0
29.560,-1.208974,9.194421,5.702096,-0.113163,0.165239,0.111483,0
29.581,-0.242273,8.231908,5.363512,-0.200822,0.120493,0.112857,0
29.601,-0.399003,8.063214,6.835098,-0.093920,0.142331,0.085827,0
29.620,-0.439681,9.177073,4.392026,0.052534,0.179900,0.056505,0
29.645,-0.500100,8.334800,6.010172,-0.023366,0.131641,0.032834,0
29.660,-0.208774,8.249854,1.113859,0.066737,0.135765,0.015882,0
29.685,-0.037687,8.234900,7.312466,-0.147677,0.066890,-0.036957,0
29.704,-0.037687,7.889136,4.186841,0.183107,0.146149,-0.057116,0
29.722,-0.040080,9.064610,7.336394,0.053909,0.067195,-0.114995,0
29.742,0.083151,8.056036,4.168895,0.143095,0.041081,-0.142026,0
29.763,-0.315254,8.681161,4.354339,0.007330,-0.041844,-0.210901,0
29.784,0.238086,8.307880,4.700102,0.014050,-0.078191,-0.225867,0
29.802,-0.419342,7.962117,4.195815,0.145691,-0.096975,-0.290008,0
29.824,-0.315853,9.022138,7.202994,-0.022907,-0.183565,-0.320704,0
29.845,-0.287139,7.334002,4.692325,0.049633,-0.186161,-0.329714,0
29.864,-0.185444,8.599805,5.702694,-0.015119,-0.238390,-0.333838,0
29.884,-0.439083,8.863015,3.725027,0.037874,-0.224951,-0.306043,0
29.907,-0.317647,7.780263,6.599405,0.133932,-0.154396,-0.271682,0
29.925,-0.116650,8.207381,4.746164,0.012217,-0.188910,-0.245873,0
29.945,-0.666401,8.359326,4.324429,0.055436,-0.153480,-0.230754,0
29.967,-0.884746,8.984451,4.867001,0.011454,-0.113926,-0.156229,0
29.987,-0.678963,8.950353,4.536193,0.030849,-0.041539,-0.085827,0
30.010,-0.908674,7.975278,4.071986,-0.063072,-0.045815,-0.080176,0
30.029,-0.849452,8.359326,5.233701,-0.038484,-0.011301,-0.046273,0
30.047,-0.464208,8.276175,5.402395,-0.087965,-0.023366,-0.039706,0
30.067,-1.125823,8.468200,4.431508,0.057269,0.031460,-0.032681,0
30.088,-1.055235,8.337193,4.406981,-0.047495,-0.024435,-0.016035,0
30.110,-1.196411,7.782656,4.660620,-0.032834,-0.058796,-0.090561,0
30.127,-1.268794,8.966505,5.807381,-0.044440,-0.061239,-0.082925,0
30.150,-1.343570,8.638090,6.786045,-0.059101,-0.096058,-0.084605,0
30.168,-0.501895,7.348957,3.555734,0.034208,-0.129961,-0.111025,0
30.190,-1.100698,8.687741,6.148956,0.063683,-0.172417,-0.175318,0
30.210,-1.069592,7.496713,1.787439,-0.010385,-0.249538,-0.198378,0
30.228,-1.073181,8.938389,6.992426,-0.117286,-0.297797,-0.185856,0
30.249,-0.122034,7.427321,7.127022,-0.166002,-0.302378,-0.164323,0
30.271,-1.261018,9.680164,3.202195,0.100487,-0.208916,-0.144470,0
30.290,-0.876371,8.474181,3.995416,-0.051924,-0.242971,-0.103083,0
30.313,-1.024128,7.948957,4.414160,-0.015882,-0.190590,-0.049480,0
30.331,-0.726820,8.532207,5.856433,-0.173180,-0.200516,0.003054,0
30.353,-0.900300,8.368299,3.329613,-0.067195,-0.149356,0.017104,0
30.372,-0.503091,8.621340,5.599205,-0.020769,-0.105985,0.054520,0
30.392,-1.250848,7.873583,4.481757,-0.139583,-0.126144,0.062155,0
30.412,-0.471984,8.191829,6.238089,-0.069333,-0.067806,0.105985,0
30.434,-1.199402,8.903693,2.792424,-0.051313,-0.019090,0.136681,0
30.452,-0.532403,8.075178,3.920640,-0.080481,0.023060,0.188452,0
30.474,-1.247259,9.172287,6.262017,-0.082772,0.077274,0.214719,0
30.493,-1.264009,8.335398,6.920043,-0.064294,0.146149,0.288023,0
30.516,-1.539781,8.178668,2.230709,0.072693,0.227242,0.330631,0
30.536,-1.875375,9.061021,5.465207,0.037110,0.270308,0.364075,0
30.556,-1.755734,8.630911,7.386643,-0.012675,0.302073,0.405614,0
30.575,-1.503291,7.902895,2.959323,-0.009010,0.324827,0.435394,0
30.597,-1.067797,8.529815,5.486144,-0.089950,0.324064,0.427911,0
30.615,-1.790430,8.173882,4.482355,-0.052382,0.363312,0.433256,0
30.636,-1.332204,7.919645,5.340780,-0.036194,0.408058,0.460287,0
30.657,-0.403191,8.237890,3.436093,0.004734,0.464410,0.513737,0
30.680,-1.921437,9.479167,7.442276,-0.073304,0.493884,0.500909,0
30.697,-1.086940,7.600203,3.228516,-0.105069,0.514195,0.502436,0
30.720,-0.729213,8.161320,6.936194,-0.004276,0.542601,0.526260,0
30.741,-1.029512,7.805985,3.792026,0.033139,0.563828,0.430965,0
30.760,-0.334995,7.942377,5.334200,0.021533,0.504269,0.396146,0
30.781,-0.429512,8.038090,6.424729,0.000916,0.404545,0.283289,0
30.800,-0.117248,8.079366,5.598009,-0.043982,0.293062,0.140499,0
30.820,-0.089133,8.294122,4.895715,0.025351,0.240375,0.062919,0
30.841,0.014955,8.366505,6.603592,-0.049938,0.119424,-0.023824,0
30.861,0.180658,7.418348,3.340380,0.019853,0.026725,-0.154549,0
30.885,0.198006,8.927023,5.274978,0.109803,-0.008247,-0.212428,0
30.905,0.095115,8.598608,3.053840,0.027794,-0.128129,-0.329256,0
30.926,-0.284148,8.246863,7.698907,-0.062003,-0.172417,-0.330631,0
30.946,0.339781,8.751151,3.651447,-0.009163,-0.199295,-0.342390,0
30.966,-0.961915,7.990233,4.162913,0.056963,-0.157145,-0.345444,0
30.984,-0.785444,8.819944,4.758726,-0.057421,-0.181121,-0.309556,0
31.005,-0.334397,8.639884,6.387042,-0.008399,-0.109039,-0.214566,0
31.026,-1.031307,7.408179,4.430311,0.039706,-0.072846,-0.195171,0
31.047,-0.932603,8.479566,5.068596,-0.024740,-0.037721,-0.101556,0
31.066,-1.419542,8.236693,5.761917,-0.042302,-0.011912,-0.058490,0
31.089,-1.552344,9.202198,5.469993,0.009010,0.009468,-0.045357,0
31.108,-1.314856,8.193623,2.444268,-0.014966,0.008552,-0.014813,0
31.129,-0.840479,8.108080,5.938986,0.018326,0.067501,0.037263,0
31.148,-0.606581,8.650054,5.084150,0.020464,0.071624,0.029780,0
31.169,-1.000200,8.419147,4.823930,-0.068111,0.059101,0.030696,0
31.190,-0.430708,8.621938,5.127819,-0.051771,0.082467,0.072693,0
31.208,-0.598804,8.361120,4.843671,-0.051160,0.083383,0.042913,0
31.236,-0.891326,8.603394,3.186043,-0.065668,0.058490,0.030391,0
31.252,0.011964,7.551748,5.697909,-0.141721,0.018631,0.012675,0
31.270,-0.537787,8.550154,5.697909,-0.089644,0.016646,-0.040164,0
31.290,-0.778864,7.840084,4.664808,0.039859,0.039248,-0.051924,0
31.312,-0.507877,8.298309,4.846064,0.044899,0.024282,-0.065210,0
31.331,-1.248455,8.331210,4.934000,0.023213,0.017257,-0.080176,0
31.353,-0.675374,8.405388,6.719644,-0.112399,-0.013134,-0.051007,0
31.373,-0.973281,8.152945,5.568098,0.111330,0.065210,-0.048716,0
31.392,-0.800997,8.449057,5.266005,0.067959,0.045204,-0.035888,0
31.413,-0.887737,9.061021,3.693920,0.043677,0.033598,-0.047953,0
31.432,-0.739980,8.272586,4.162913,-0.060781,-0.008552,-0.048716,0
31.454,-0.804587,8.624331,6.106483,0.019090,0.005498,-0.060476,0
31.476,-0.664008,7.586444,4.997410,0.099571,0.022755,-0.064141,0
31.495,-1.094118,8.822935,4.668397,0.065668,0.003207,-0.081856,0
31.514,-1.039681,8.816355,5.448457,0.041844,-0.025045,-0.083230,0
31.534,-0.577268,7.575676,4.909474,0.054520,-0.050854,-0.099113,0
31.556,-0.692722,8.383254,4.852046,0.045204,-0.050702,-0.093310,0
31.575,-1.055235,8.621938,4.442275,-0.021075,-0.086437,-0.105527,0
31.597,-0.722034,8.382656,5.629714,-0.008094,-0.071318,-0.081550,0
31.617,-0.543769,7.955537,5.366503,-0.003971,-0.067653,-0.074678,0
31.636,-0.867398,8.261818,4.989035,-0.017868,-0.053298,-0.063377,0
31.657,-1.078565,8.238488,4.980062,-0.042455,-0.050702,-0.050396,0
31.676,-0.998405,8.056036,4.682156,0.040928,-0.018021,-0.040775,0
31.699,-1.362114,9.209974,5.444270,0.007483,-0.008094,-0.007330,0
31.717,-0.704088,7.716853,4.332205,0.017868,-0.007483,0.002291,0
31.740,-0.902692,8.422736,5.855237,0.067501,0.014355,-0.001222,0
31.758,-0.942772,7.840084,3.273980,-0.028558,-0.024740,0.000611,0
31.780,-1.573281,9.459426,5.624330,-0.069639,-0.045051,-0.004887,0
31.800,-0.457029,8.188837,3.549752,-0.072998,-0.053451,0.024740,0
31.820,-1.149751,8.657232,5.347361,0.041539,0.001069,0.002749,0
31.840,-1.237089,8.491529,6.242276,-0.026114,-0.021838,0.017257,0
31.861,-1.140778,7.975278,5.807381,0.045204,-0.013134,0.012981,0
31.880,-1.737189,8.260024,3.801597,0.069486,-0.007636,0.004734,0
31.902,-0.687338,8.922835,5.893522,-0.047647,-0.055589,0.040164,0
31.921,-1.151546,8.606983,3.235096,0.051465,-0.003818,0.027947,0
31.942,-0.541376,7.253243,5.965307,0.095600,0.052382,0.027794,0
31.961,-0.173480,9.013165,3.388835,-0.072387,0.025809,0.129503,0
31.983,-1.347757,8.589037,5.614160,-0.063530,0.016646,0.047800,0
32.002,-1.233500,8.711669,5.998208,-0.116675,0.029322,0.070555,0
32.021,-0.239282,8.132008,4.579863,0.045051,0.091019,0.126449,0
32.044,-1.033101,8.315657,4.439882,0.022449,0.096517,0.090713,0
32.064,-1.081556,8.800801,5.481359,-0.007025,0.096822,0.103847,0
32.082,-0.589233,7.810173,2.820540,0.042150,0.125075,0.109803,0
32.105,-0.437288,8.598010,5.342575,-0.031460,0.102473,0.113163,0
32.126,-1.013959,8.553742,4.654040,0.059712,0.156076,0.093615,0
32.145,-0.613759,8.422736,5.349753,-0.064446,0.093920,0.062614,0
32.167,-1.346561,8.400602,3.218945,0.046578,0.137903,0.050702,0
32.186,-0.435494,7.766504,6.985846,-0.102625,0.077733,0.056352,0
32.205,-1.242473,8.285747,3.420540,0.085827,0.100945,0.029474,0
32.229,-1.146760,8.796615,5.325825,0.065210,0.047189,-0.028252,0
32.249,-0.406182,8.609376,4.420142,0.135917,0.011454,-0.083078,0
32.268,-0.940379,8.680562,5.335995,-0.124158,-0.084452,-0.077122,0
32.286,-0.860220,8.340781,3.425924,0.090408,-0.027336,-0.078191,0
32.308,-0.774676,8.112267,6.113064,-0.078496,-0.096517,-0.113010,0
32.327,-0.261416,8.583653,4.417749,-0.069944,-0.127518,-0.131030,0
32.350,-0.492921,8.766106,7.463812,-0.036194,-0.106901,-0.131947,0
32.368,-0.475574,7.761718,1.484148,0.034972,-0.099113,-0.131336,0
32.389,-0.224327,8.562716,7.853842,-0.188910,-0.160963,-0.122020,0
32.409,-0.519841,8.759525,3.923631,0.109192,-0.080787,-0.124769,0
32.427,-0.432503,8.058429,5.246264,-0.100793,-0.125685,-0.121868,0
32.450,-0.961317,8.862417,5.434100,-0.025504,-0.070097,-0.084605,0
32.468,-0.527617,8.572886,4.259224,-0.049785,-0.074678,-0.081703,0
32.491,-0.602393,8.252846,4.420142,0.045204,-0.027947,-0.072846,0
32.512,-0.866202,9.302696,7.652247,0.016951,-0.031765,-0.068417,0
32.532,-1.109671,7.099505,0.908674,0.113315,-0.009621,-0.063530,0
32.552,-0.780658,8.225327,7.425527,-0.141110,-0.060781,-0.035583,0
32.570,-0.705883,8.917452,2.578865,0.016799,-0.013134,-0.030543,0
32.592,-0.604188,8.263613,6.667002,-0.167377,-0.074220,-0.038026,0
32.613,-1.457827,8.771489,3.326024,0.011606,-0.012981,-0.037874,0
32.632,-0.702293,8.480762,6.087939,0.021533,-0.006261,-0.022907,0
32.656,-1.053440,8.576474,2.515455,0.174249,0.064599,-0.026267,0
32.676,-0.788435,9.470194,6.923632,0.030085,0.047953,0.000611,0
32.696,-0.340379,8.017751,4.331009,0.005650,0.042455,-0.006720,0
32.715,-1.052244,7.899904,3.180660,-0.011148,0.004276,-0.031918,0
32.734,-0.427717,8.042875,5.852844,-0.084452,-0.018631,-0.042150,0
32.757,-0.768096,8.910274,3.366103,0.061239,0.008858,-0.062461,0
32.775,-0.988834,8.087741,3.940381,-0.123395,-0.077427,-0.102931,0
32.798,-1.291526,7.722237,7.006783,-0.155007,-0.122784,-0.115148,0
32.816,-0.616152,8.239685,3.967898,0.114079,-0.086896,-0.166766,0
32.840,-1.073181,9.525827,5.102096,0.097280,-0.111941,-0.187230,0
32.857,-0.663410,8.819944,5.617749,0.023824,-0.131641,-0.170126,0
32.876,-0.926022,8.793025,4.649254,-0.071166,-0.193339,-0.171042,0
32.900,-1.111466,8.235497,4.414758,0.017410,-0.168599,-0.178678,0
32.917,-0.881755,8.801400,2.504089,0.050702,-0.151036,-0.170279,0
32.940,-0.677767,8.851051,4.484748,-0.025198,-0.156534,-0.127671,0
32.960,-0.769891,8.525627,4.741976,-0.049022,-0.157145,-0.123089,0
32.980,-0.620937,8.427522,4.381856,-0.022602,-0.124922,-0.112857,0
33.002,-0.402592,9.222537,6.604789,0.043830,-0.081398,-0.082772,0
33.021,-1.024128,8.439486,3.238685,0.128129,-0.034667,-0.109498,0
33.040,-0.124427,9.513863,6.137590,-0.042302,-0.090255,-0.067653,0
33.063,-0.660419,8.703893,3.497110,0.054672,-0.049633,-0.081703,0
33.082,-0.659821,7.404590,5.065007,-0.006567,-0.065210,-0.096517,0
33.104,-1.554736,9.825528,6.485147,0.010690,-0.066737,-0.115912,0
33.127,-0.837488,6.946962,-0.330210,0.156687,-0.045968,-0.112246,0
33.145,-1.271187,8.766704,7.749754,-0.248317,-0.154854,-0.125227,0
33.164,-0.750748,7.906484,4.458427,0.099876,-0.069333,-0.110719,0
33.190,-1.708475,8.334800,6.572485,0.053756,-0.136376,-0.135154,0
33.209,-1.216152,8.007581,3.954139,0.072235,-0.152716,-0.139124,0
33.224,-1.377069,9.132208,3.693322,0.058948,-0.171958,-0.155007,0
33.246,-1.463211,8.840881,4.952545,0.099571,-0.174096,-0.167682,0
33.265,-0.991825,7.673184,4.007978,0.112552,-0.176998,-0.145844,0
33.287,-1.438685,10.221540,6.758528,0.065057,-0.210443,-0.151494,0
33.307,-1.600798,9.059825,2.646462,-0.041997,-0.241292,-0.121715,0
33.329,-0.739382,7.738389,5.542974,0.054672,-0.159588,-0.054825,0
33.348,-0.748355,7.912466,3.279363,0.008552,-0.121409,-0.025045,0
33.368,-1.703690,8.860622,5.824728,-0.009163,-0.087965,0.016188,0
33.389,-1.040280,8.123632,2.614757,0.041692,-0.044440,0.074678,0
33.408,-1.124627,9.065208,5.636892,0.066737,0.069180,0.134848,0
33.430,-1.938785,8.639286,2.702693,0.041233,0.090408,0.165544,0
33.449,-1.534397,9.110074,8.266604,-0.055436,0.116828,0.215483,0
33.472,-2.557927,7.981260,4.622933,0.092088,0.161574,0.210901,0
33.490,-1.086940,7.664211,4.061816,0.029016,0.111788,0.238848,0
33.512,-1.559522,8.553742,5.337789,-0.049938,0.089644,0.202044,0
33.531,-1.823331,9.018549,4.539185,-0.037110,0.066737,0.185092,0
33.551,-0.326620,7.238887,3.307479,0.051618,0.046578,0.155007,0
33.571,-0.654437,9.242876,7.051648,0.064752,0.049175,0.104763,0
33.592,0.064008,8.436495,3.111268,0.031918,-0.026878,0.046273,0
33.613,-1.107877,8.733205,6.538986,0.037415,-0.012370,-0.001222,0
33.634,1.473979,7.834700,5.184649,0.136070,-0.031918,-0.017257,0
33.653,-0.475574,9.991829,5.304888,0.149815,-0.071166,-0.139277,0
33.675,-0.859023,8.276175,0.632303,0.222202,-0.090408,-0.152258,0
33.694,-0.242273,7.875378,3.626323,-0.018326,-0.163864,-0.136070,0
33.713,-1.557129,9.555139,6.840482,0.166002,-0.097738,-0.155160,0
33.735,-0.867398,7.724031,5.716453,-0.000458,-0.229074,-0.171958,0
33.754,-1.509871,8.337193,4.168297,-0.012065,-0.271377,-0.192422,0
33.776,-1.607977,7.828119,3.876373,-0.022755,-0.259159,-0.138819,0
33.795,-2.267798,9.020942,4.795815,0.014966,-0.187077,-0.062308,0
33.817,-2.319842,7.822735,2.732604,0.101709,-0.105221,0.039248,0
33.836,-1.906481,8.136195,3.629912,-0.047189,-0.073609,0.107665,0
33.859,-1.595415,9.938589,4.403392,0.024740,0.080176,0.273057,0
33.877,-2.005185,9.427721,6.586843,-0.130267,0.121409,0.351247,0
33.896,-1.334597,7.356135,4.529613,0.073915,0.261756,0.433256,0
33.919,-1.156332,9.585648,8.878569,-0.126754,0.273515,0.448986,0
33.937,-1.356132,8.514261,3.024528,0.064904,0.350942,0.483805,0
33.960,-0.093918,7.125826,2.307878,-0.057727,0.279929,0.415999,0
33.978,-1.939981,9.201001,5.268397,-0.022449,0.313374,0.364686,0
34.000,-0.117248,7.807780,4.332804,-0.037415,0.199447,0.272598,0
34.020,-0.053240,7.542775,5.474180,-0.084605,0.144928,0.220064,0
34.040,-0.236291,8.715857,4.390830,-0.034514,0.075289,0.108276,0
34.062,-0.432503,7.597810,4.374678,-0.069028,-0.001069,0.043524,0
34.081,-0.002991,8.604590,7.532008,0.075747,-0.029322,-0.051618,0
34.100,-0.315254,7.805387,3.531208,-0.098655,-0.127060,-0.071777,0
34.122,-0.687936,9.051450,4.137789,-0.071166,-0.169973,-0.118355,0
34.141,-0.453440,9.574880,6.085546,-0.127060,-0.164628,-0.095906,0
34.167,-0.574277,7.698308,5.762515,-0.091935,-0.130878,-0.071777,0
34.182,-1.431506,8.185846,6.677172,0.010232,-0.093157,-0.043524,0
34.205,-1.469791,8.733205,3.821338,0.130878,-0.014813,0.005498,0
34.223,-1.532603,7.971689,6.857232,0.098044,0.012065,0.054062,0
34.247,-0.894317,6.951748,-0.583849,0.173791,0.060476,0.104305,0
34.265,-1.788635,9.985847,7.329216,-0.099571,0.033903,0.144164,0
34.287,-1.040878,9.014959,4.287938,0.151800,0.148440,0.229227,0
34.305,-0.815953,8.087142,5.868398,-0.072998,0.131030,0.243888,0
34.327,-0.639482,9.627522,2.709273,0.027947,0.219453,0.323758,0
34.347,-1.010369,8.319844,6.462416,-0.143706,0.245873,0.340099,0
34.365,0.434297,7.427321,5.164907,-0.071166,0.333990,0.408669,0
34.388,-1.698904,8.384451,5.573482,0.011454,0.400422,0.383929,0
34.406,-0.239282,7.922038,6.413961,-0.146913,0.369115,0.403476,0
34.428,-1.006780,8.362915,3.290729,0.039401,0.397368,0.348498,0
34.448,-0.250648,7.581060,5.632106,-0.065668,0.264199,0.205861,0
34.469,-0.693320,7.715058,4.118048,0.029322,0.241444,0.130878,0
34.488,0.155533,8.152945,5.612964,-0.000611,0.179136,0.086590,0
34.510,0.012562,9.171091,9.942178,0.198073,0.094989,-0.072082,0
34.529,-0.234497,8.005786,0.628714,0.202044,0.019242,-0.130114,0
34.550,-0.683151,8.925827,7.230512,0.058338,-0.030391,-0.160352,0
34.570,0.220140,9.266804,4.761119,0.028405,-0.176540,-0.242361,0
34.588,-1.047458,7.502696,1.595415,0.058490,-0.173486,-0.270919,0
34.611,-0.792623,8.804989,5.892326,-0.138666,-0.257938,-0.235336,0
34.631,-0.613161,8.652447,5.337191,0.032376,-0.202196,-0.215941,0
34.651,-0.876371,8.793623,5.257031,0.062003,-0.153938,-0.170584,0
34.672,-1.491327,8.107481,3.151946,0.023366,-0.080176,-0.029627,0
34.691,-1.268196,9.486345,4.977669,0.090713,0.070708,0.088117,0
34.713,-1.494916,8.368299,5.340182,0.015424,0.143401,0.195477,0
34.731,-1.457229,7.957930,2.304886,-0.020159,0.243277,0.299324,0
34.754,-1.097109,9.348758,6.412765,0.063072,0.371100,0.386219,0
34.773,-1.582254,9.729815,3.404987,-0.008858,0.432645,0.465326,0
34.795,-1.401596,7.473981,4.099504,0.015272,0.485332,0.491746,0
34.814,-0.976870,8.425727,6.989435,-0.244193,0.450513,0.485332,0
34.835,-0.260219,8.225926,4.459623,0.071471,0.528093,0.457843,0
34.854,-0.076570,8.147561,4.024129,0.133627,0.543975,0.415999,0
34.873,-0.200399,8.428718,6.092725,-0.045204,0.442266,0.314595,0
34.895,-0.296710,8.977272,1.557728,0.129045,0.454483,0.269391,0
34.916,-0.563510,8.985647,7.268797,-0.249844,0.291841,0.185245,0
34.935,-0.440279,8.003393,3.088536,-0.019242,0.287565,0.107970,0
34.957,-0.389432,7.882556,7.960323,-0.081550,0.223271,0.049175,0
34.977,-0.915853,10.082158,3.495316,0.124616,0.228311,-0.032834,0
34.998,-0.745364,6.997810,5.796015,0.037110,0.175471,-0.045968,0
35.016,-0.117248,7.835896,5.097908,0.012217,0.147371,-0.040317,0
35.043,-0.968495,8.373085,4.431508,-0.009163,0.134085,-0.076205,0
35.057,-0.838684,8.779864,4.647460,0.104305,0.181274,-0.046731,0
35.080,-0.976870,8.376674,4.631907,0.016646,0.128282,-0.068111,0
35.099,-0.917049,8.264212,4.569095,-0.081856,0.078038,-0.040164,0
35.117,-1.358525,8.942576,7.229315,-0.017868,0.085368,-0.069791,0
35.140,-1.051646,7.281958,3.129812,0.168446,0.076816,-0.103694,0
35.160,-0.463011,8.758329,5.871388,-0.091782,-0.035125,-0.111636,0
35.180,-0.505484,8.963513,5.984449,-0.101251,-0.085674,-0.163864,0
35.200,0.349352,8.151749,3.045465,0.170279,-0.083688,-0.231518,0
35.220,0.356531,8.729615,5.582455,-0.123089,-0.186314,-0.251371,0
35.242,0.534796,8.003393,4.862216,-0.033139,-0.184328,-0.290924,0
35.260,0.129212,9.076574,2.618346,0.102014,-0.155618,-0.292146,0
35.283,0.240479,7.264011,4.320241,0.036805,-0.158519,-0.277485,0
35.301,-0.221934,9.035298,6.020940,-0.088117,-0.199905,-0.284205,0
35.323,-0.792024,9.773484,3.321238,0.069028,-0.130114,-0.264199,0
35.342,-0.903291,8.566903,5.724230,-0.065057,-0.145080,-0.206472,0
35.361,-1.707279,8.273783,3.972085,-0.057421,-0.098807,-0.166919,0
35.387,-1.619343,8.882756,6.442675,0.073609,-0.088117,-0.135612,0
35.404,-1.706083,8.753544,3.202195,-0.019242,-0.043066,-0.071929,0
35.422,-1.702493,8.126624,4.225127,0.039706,0.014050,0.014508,0
35.445,-1.452443,8.048857,4.116851,0.039401,0.040164,0.035125,0
35.467,-1.844866,8.917452,4.974080,0.046273,0.083230,0.082925,0
35.485,-2.066801,8.879167,4.975276,-0.027947,0.085827,0.130572,0
35.505,-1.137787,8.120642,3.384049,-0.131947,0.076664,0.196088,0
35.527,-2.149353,9.557532,6.205187,-0.051924,0.128129,0.187077,0
35.545,-0.902692,8.195417,5.316254,-0.088117,0.156534,0.269239,0
35.568,-1.965106,9.099904,2.801995,-0.047342,0.150425,0.246637,0
35.587,-0.716650,8.704491,5.776274,-0.119882,0.135307,0.233961,0
35.609,-0.545564,7.462615,4.939982,0.124464,0.194255,0.183259,0
35.631,-0.926621,9.038289,4.390231,-0.095600,0.119271,0.194560,0
35.646,-0.607777,8.575278,3.525226,0.069486,0.171348,0.213955,0
35.668,-0.672383,8.255239,4.342973,0.045051,0.168904,0.172569,0
35.687,-0.381655,7.869395,6.069395,0.042761,0.179442,0.173944,0
35.711,-0.280558,9.128618,4.534399,-0.005192,0.191353,0.200669,0
35.728,-1.560120,8.765508,4.981857,0.124769,0.265726,0.199600,0
35.750,-0.631705,8.404191,4.208975,-0.021228,0.247858,0.251065,0
35.769,-0.701695,8.991031,4.894519,-0.015119,0.262977,0.198378,0
35.791,-0.865604,8.546564,2.955136,0.017562,0.269086,0.212886,0
35.811,-0.534796,8.797213,7.294520,0.103694,0.264963,0.156534,0
35.828,-0.214158,6.927820,4.363312,-0.096517,0.175165,0.127518,0
35.852,-0.813560,8.382656,4.547559,0.004734,0.178220,0.072540,0
35.871,-0.644267,8.918648,5.187041,0.151189,0.196088,0.063835,0
35.890,-0.465404,8.825328,5.021936,-0.067653,0.100335,0.039095,0
35.913,-0.299701,7.923234,6.574280,-0.092851,0.106138,0.034819,0
35.933,-0.245863,7.925627,-0.107079,0.133169,0.170126,0.012065,0
35.954,-0.571286,9.646665,8.726624,-0.122020,0.134543,0.031154,0
35.973,-0.183649,7.960921,2.794817,0.021533,0.182954,0.043830,0
35.992,-0.585643,8.032107,6.394818,-0.072235,0.188452,0.041997,0
36.014,-0.580260,9.015557,3.626323,0.018631,0.244804,0.070708,0
36.033,-0.309272,8.772088,5.062614,0.000000,0.269239,0.074678,0
36.055,-0.807578,7.946564,6.187241,-0.178831,0.219300,0.069944,0
36.074,-0.427717,8.130213,4.246662,-0.094226,0.244804,0.074526,0
36.097,0.501895,8.250452,6.847660,-0.002596,0.272293,0.047800,0
36.115,-0.872782,9.218349,2.476571,0.131030,0.283747,-0.066432,0
36.133,-0.314058,7.762915,7.509275,-0.007483,0.228005,-0.063530,0
36.155,0.074776,7.978269,3.490530,0.017868,0.135154,-0.170737,0
36.176,0.275175,8.170891,4.828716,-0.045815,-0.004123,-0.287565,0
36.197,0.139980,7.414759,6.050252,0.029627,-0.071013,-0.377514,0
36.217,-0.400798,8.848060,4.686941,0.056200,-0.184328,-0.496633,0
36.236,-0.358923,8.908479,4.121039,0.070097,-0.259312,-0.565966,0
36.256,-0.224327,7.582257,4.415356,0.056810,-0.327882,-0.582612,0
36.279,-0.281755,8.806784,6.110671,0.013592,-0.391259,-0.608727,0
36.297,-1.088136,8.689535,5.109274,0.025351,-0.397062,-0.596051,0
36.320,-0.940379,8.187641,4.864608,0.067959,-0.366213,-0.526413,0
36.338,-1.944168,8.988638,4.410570,-0.011912,-0.358119,-0.462272,0
36.360,-1.795215,8.928818,3.476771,0.033750,-0.278249,-0.350484,0
36.380,-1.761716,8.731410,4.400999,-0.021075,-0.194408,-0.217162,0
36.402,-1.185644,7.767701,4.398008,0.031918,-0.081856,-0.109345,0
36.420,-2.231307,9.287143,4.445266,0.053145,0.016188,-0.032070,0
36.442,-0.990629,9.037691,4.347759,-0.115148,0.002749,0.037568,0
36.461,-1.366900,9.252447,4.871189,-0.071777,0.142942,0.136834,0
36.480,-0.893719,8.749356,6.568896,0.032529,0.214108,0.132558,0
36.502,-0.801596,7.311270,2.710470,0.066126,0.245262,0.161268,0
36.522,-0.440878,7.872386,5.252844,0.016341,0.220217,0.111330,0
36.542,-0.919442,8.866604,1.601397,-0.047495,0.146455,0.036957,0
36.567,-0.363709,9.273384,9.305089,-0.139430,0.043524,-0.072693,0
36.583,-0.410369,7.220941,2.525026,0.072540,0.017410,-0.161421,0
36.605,-0.227318,7.401000,7.351349,0.036652,-0.059865,-0.252134,0
36.624,-0.784248,9.150752,3.447459,0.053451,-0.126449,-0.311388,0
36.647,-1.009173,8.147561,3.761517,-0.080940,-0.226325,-0.368810,0
36.665,-0.165703,7.451848,6.750153,0.052840,-0.235336,-0.395840,0
36.684,-1.155135,9.993624,5.937191,-0.077427,-0.311999,-0.434478,0
36.707,-1.409373,7.820343,5.558527,-0.176234,-0.376293,-0.421802,0
36.729,-1.508675,8.445468,4.122235,0.195629,-0.273820,-0.412486,0
36.744,-1.591825,7.884351,3.762714,0.176387,-0.316886,-0.428522,0
36.766,-1.712663,8.324032,5.918048,0.067348,-0.321773,-0.392022,0
36.785,-1.168894,8.684152,4.402195,0.234725,-0.270766,-0.339794,0
36.809,-1.741975,8.522636,4.149753,0.054520,-0.288175,-0.277485,0
36.828,-0.940978,8.257631,4.666004,0.014508,-0.305738,-0.261908,0
36.846,-1.744368,8.166703,6.530611,0.109498,-0.277333,-0.281303,0
36.868,-0.995414,8.915059,3.226123,0.080940,-0.271224,-0.237321,0
36.888,-1.256232,8.559127,4.007978,0.021533,-0.285885,-0.237016,0
36.907,-1.097707,8.810971,5.017749,0.034514,-0.266795,-0.221438,0
