Timestamp,AccX,AccY,AccZ,GyroX,GyroY,GyroZ,Label
0.0,1.82363,6.998308,6.55783,-0.004658,0.007941,-0.007967,0
0.1,1.772005,6.997451,6.572246,-0.005925,0.009926,-0.01011,0
0.2,1.735634,7.041838,6.545447,-0.005162,0.009743,-0.009072,0
0.3,1.691127,6.977112,6.622496,-0.005131,0.007147,-0.007941,0
0.4,1.729891,6.904968,6.678368,-0.00055,0.000672,-0.001436,0
0.5,1.659722,6.978368,6.630212,0.000305,-0.000802,-0.000878,0
0.6,1.682154,7.050691,6.545806,0.004215,-0.005345,0.006964,0
0.7,1.791028,7.016474,6.55753,0.004643,-0.005589,0.008216,0
0.8,1.958166,6.993144,6.533243,0.0,0.002749,0.002352,0
0.9,1.803829,7.023054,6.538388,-0.00449,0.008461,-0.008308,0
1.0,1.720679,7.036214,6.546643,-0.006475,0.010904,-0.011759,0
1.1,1.76698,7.010851,6.575477,-0.006781,0.011973,-0.011759,0
1.2,1.708476,6.950791,6.644151,-0.008949,0.013836,-0.013012,0
1.3,1.59039,6.970771,6.651808,-0.004154,0.007788,-0.007025,0
1.4,1.711227,7.010492,6.588877,-0.002016,0.004215,-0.003421,0
1.5,1.599452,6.993174,6.623931,-0.004276,0.005002,-0.006643,0
1.6,1.740778,6.910372,6.678966,-0.001578,0.003207,-0.003309,0
1.7,1.686342,7.015906,6.589385,-0.002138,0.004505,-0.004314,0
1.8,1.691367,6.994579,6.601917,-0.003512,0.006384,-0.005742,0
1.9,1.582134,6.967421,6.658627,-0.002535,0.005712,-0.004826,0
2.0,1.670071,6.991469,6.618787,-0.000122,0.007758,0.003696,0
2.1,1.52686,6.977231,6.675018,0.00055,0.000428,0.002077,0
2.2,1.643151,7.044709,6.558966,0.006017,0.005101,0.019303,0
2.3,1.79031,6.977471,6.593303,0.001558,0.004246,0.006444,0
2.4,1.761476,7.001758,6.581459,-0.004062,0.007422,-0.006994,0
2.5,1.742334,6.992785,6.595577,-0.006536,0.012095,-0.011759,0
2.6,1.634298,6.955038,6.663712,-0.011072,0.016226,-0.018479,0
2.7,1.397767,6.938827,6.75087,-0.006384,0.009957,-0.009957,0
2.8,1.362114,6.948039,6.737112,0.000489,-0.003116,0.000366,0
2.9,1.488096,7.003433,6.655397,0.010385,-0.017623,0.017288,0
3.0,1.580698,7.107999,6.528697,0.009743,-0.021136,0.02022,0
3.1,1.619223,7.065527,6.534918,0.011545,-0.020311,0.020189,0
3.2,1.660379,6.943852,6.670113,0.013073,-0.019945,0.016219,0
3.3,1.701058,6.793582,6.795018,0.014569,-0.027031,0.018631,0
3.4,1.794378,6.719644,6.87769,0.030146,-0.024526,0.058948,0
3.5,2.649573,7.242955,6.041279,0.018295,0.012736,0.060017,0
3.6,2.054836,7.333164,6.078966,-0.134207,-0.254517,-0.473053,0
3.7,0.670828,7.440961,6.456434,-0.054306,-0.103633,-0.208946,0
3.8,2.148037,7.152386,6.21775,-0.085552,-0.146882,-0.280601,0
3.9,1.407129,7.889435,5.93405,-0.102052,-0.135612,-0.331127,0
4.0,1.194916,7.525427,6.082854,-0.086896,-0.031434,-0.228311,0
4.1,0.73684,7.221688,6.469146,-0.098426,-0.006681,-0.214299,0
4.2,0.900299,7.212685,6.387879,-0.086285,0.013164,-0.161788,0
4.3,0.7468,6.17085,7.685746,-0.071349,-0.044226,-0.223943,0
4.4,0.867637,6.197171,7.501619,-0.119424,-0.17147,-0.364106,0
4.5,0.803988,6.373403,7.429953,-0.108826,-0.117378,-0.25641,0
4.6,-0.066042,6.589595,7.3943,-0.110475,-0.347155,-0.499871,0
4.7,-0.298624,7.028199,7.140662,-0.016157,-0.115118,-0.137017,0
4.8,-0.0201,7.009894,6.953782,0.138636,0.214169,0.445992,0
4.9,0.957847,7.506045,6.135795,0.166919,0.317986,0.589332,0
5.0,1.014916,7.226205,6.41085,0.084757,0.235,0.336495,0
5.1,1.035973,7.265447,6.205786,0.018509,0.083292,0.035277,0
5.2,0.916212,6.955935,6.859026,-0.071105,-0.123853,-0.356501,0
5.3,0.733639,6.918248,6.650731,-0.114476,-0.251004,-0.516792,0
5.4,0.760469,6.76436,7.456484,-0.169134,-0.402522,-0.77263,0
5.5,-0.970409,6.742974,7.593384,-0.138055,-0.463738,-0.718774,0
5.6,-3.104448,7.416195,7.104291,0.240192,0.00788,0.302561,0
5.7,-0.333081,7.062416,6.559684,0.544372,0.808632,1.655871,0
5.8,1.572444,6.863573,6.523074,0.472015,0.940701,1.621785,0
5.9,1.014796,7.089335,5.831787,0.259343,0.5448,0.814741,0
6.0,1.382334,7.48116,6.754699,0.138758,0.392297,0.524061,0
6.1,1.461656,7.303971,6.103492,0.064385,0.311633,0.390251,0
6.2,1.435215,7.277172,6.15434,0.093798,0.290741,0.308975,0
6.3,1.906481,7.36786,5.878567,0.042119,0.230205,0.219117,0
6.4,2.578266,7.00768,6.017351,-0.035774,0.141721,0.008819,0
6.5,1.527459,7.251329,6.572486,-0.152288,-0.0197,-0.245567,0
6.6,1.208854,6.969455,6.74417,-0.147035,-0.122417,-0.359005,0
6.7,0.358325,7.13779,6.609574,0.017379,0.005834,0.058215,0
6.8,1.651765,7.142097,6.575836,0.030452,0.289092,0.477055,0
6.9,2.587,6.528936,6.203632,-0.038607,0.078435,0.014966,0
7.0,0.809851,7.008577,7.414281,-0.161574,-0.147707,-0.224676,0
7.1,0.460379,7.069355,6.679325,0.057177,0.071593,0.210137,0
7.2,0.276969,6.96431,6.922795,0.162429,0.47959,0.963456,0
7.3,1.386042,6.304848,7.095437,0.294193,0.895375,1.318399,0
7.4,2.776631,6.303293,6.304848,0.294681,0.804692,1.003865,0
7.5,4.656194,6.06425,5.710711,-0.115881,0.101923,-0.409066,0
7.6,2.076372,6.789933,7.803742,-0.424436,-0.502131,-1.306525,0
7.7,0.867897,6.897012,6.74756,-0.314214,-0.624736,-1.07782,0
7.8,-0.154038,7.639685,7.077072,0.02119,0.016837,0.030353,0
7.9,-0.168096,6.527022,5.828438,0.189948,0.20128,0.693271,0
8.0,1.497548,7.077969,7.318448,0.128618,0.695958,0.998703,0
8.1,2.914219,7.192107,7.19761,0.253448,0.581421,0.722531,0
8.2,1.2134,6.760801,7.625328,0.045326,0.269911,0.180968,0
8.3,5.381458,5.864689,11.411012,0.153999,0.175135,-0.106382,0
8.4,-0.935953,6.023811,-0.305683,-0.121104,-0.041325,-0.810801,0
8.5,0.924347,7.230751,10.795578,0.091935,0.018051,-0.144928,0
8.6,0.120957,7.666843,4.330172,0.367252,0.576382,0.949223,0
8.7,3.644867,5.784349,10.419247,0.139926,0.466166,0.293788,0
8.8,2.678765,6.839485,5.202695,-0.116472,-0.13971,-1.029129,0
8.9,-0.232223,4.86736,5.157729,-0.172233,-0.444679,-0.690216,0
9.0,3.314059,6.385995,11.970095,-0.865748,-0.400384,-0.105412,0
9.1,0.804467,8.517611,6.256513,-0.79504,-0.227455,0.585514,0
9.2,-0.702054,6.524509,4.883631,0.34407,0.26142,0.355737,0
9.3,1.587399,4.970969,9.071909,0.301126,0.509034,0.970542,0
9.4,2.914338,5.101259,7.151309,0.251187,0.228067,0.032467,0
9.5,1.884228,7.267481,5.043233,0.242025,-0.047098,-0.610559,0
9.6,2.24698,8.87474,6.240721,0.15687,-0.087628,-0.368016,0
9.7,0.474018,5.029115,8.010093,-0.50436,-0.447367,-0.999863,0
9.8,-1.264487,7.017431,7.248219,-0.131947,-0.232526,-0.243674,0
9.9,1.241636,6.333203,7.402436,0.117011,0.168079,0.4408,0
10.0,2.888496,5.841598,7.172247,-0.147341,-0.204243,-0.281151,0
10.1,-0.275623,7.372137,7.106384,-0.122364,-0.432034,-0.653931,0
10.2,-0.902573,6.923872,7.360801,0.099113,-0.033262,0.120249,0
10.3,0.862254,7.117331,6.25747,0.236557,0.371956,0.721737,0
10.4,1.279442,6.471389,6.773483,0.025901,0.15684,0.172478,0
10.5,1.285185,6.997212,6.832944,-0.085552,-0.256594,-0.544525,0
10.6,0.365862,7.244988,6.541858,-0.009621,-0.22657,-0.35253,0
10.7,0.256271,7.443712,6.815596,-0.046701,-0.182007,-0.187383,0
10.8,-0.343011,6.949235,6.919564,0.074556,-0.03488,0.098991,0
10.9,0.971127,6.950432,6.929375,0.133474,0.145202,0.375468,0
11.0,1.359841,7.152626,6.123353,-0.019548,0.064538,0.103328,0
11.1,1.021376,6.939305,6.7876,-0.087659,-0.091844,-0.297063,0
11.2,0.28343,6.777192,7.055956,-0.108795,-0.136681,-0.259343,0
11.3,-0.103938,7.568947,7.213014,0.038256,-0.062766,-0.048182,0
11.4,0.112822,7.128458,6.139026,0.064935,0.078343,0.072693,0
11.5,0.987638,7.151429,6.787481,-0.030635,0.125899,0.225928,0
11.6,0.707558,6.083991,5.861698,0.194713,-0.125808,0.033567,0
11.7,2.037967,7.814121,6.921957,-1.183123,-0.594768,-0.242239,0
11.8,0.387996,6.703373,6.631229,-0.189857,-0.363831,-0.706862,0
11.9,-0.385005,7.13109,7.412247,-0.122081,-0.130969,-0.144225,0
12.0,0.245623,6.144529,7.780861,-0.033261,-0.003054,0.315389,0
12.1,1.332683,7.111349,6.973523,0.108826,-0.001283,0.292879,0
12.2,1.597807,6.269674,6.301379,-0.173638,-0.188421,-0.247645,0
12.3,0.374955,7.638009,6.943134,-0.03934,-0.295567,-0.414197,0
12.4,0.374238,6.391109,7.732406,0.008491,-0.133199,-0.001344,0
12.5,0.486042,6.793223,6.493672,0.115262,0.027069,0.232129,0
12.6,0.778385,6.642835,6.98776,0.060629,0.113163,0.317222,0
12.7,2.150909,6.561359,7.873224,-0.12202,-0.013958,0.047342,0
12.8,0.80339,6.701339,7.519565,-0.014935,-0.152472,-0.421191,0
12.9,0.449731,6.839166,6.040202,0.021136,-0.323514,-0.391992,0
13.0,0.741775,6.445307,6.925307,0.049175,-0.206503,-0.13946,0
13.1,0.371605,6.593543,8.157611,0.187932,-0.029505,0.218323,0
13.2,-0.560877,7.324908,6.607062,0.345811,0.426872,0.902797,0
13.3,2.282155,6.346723,6.843832,0.195538,0.508973,0.783495,0
13.4,3.125146,6.544131,6.259026,-0.147066,0.037721,-0.311297,0
13.5,0.975674,6.821339,6.658777,-0.115148,-0.268552,-0.887243,0
13.6,-0.289292,7.491808,7.041838,-0.301737,-0.320948,-0.412181,0
13.7,0.082672,6.742017,6.453323,0.124494,0.07874,0.198439,0
13.8,1.552224,6.890372,6.408816,0.037721,0.149082,0.248622,0
13.9,1.522792,6.750153,7.408298,-0.072693,0.038729,-0.037202,0
14.0,1.055594,6.597849,7.182177,-0.112308,-0.09389,-0.274981,0
14.1,0.425564,7.213762,6.816075,-0.097647,-0.110841,-0.183717,0
14.2,1.047937,6.686503,6.675497,0.005009,-0.060781,-0.126296,0
14.3,1.644108,6.874699,6.975317,-0.079748,-0.136803,-0.213314,0
14.4,0.045224,6.786404,6.749794,-0.081734,-0.201616,-0.332433,0
14.5,0.820259,6.946962,7.188398,0.032101,-0.112643,-0.127304,0
14.6,0.528096,6.976035,7.108238,-0.019792,-0.076908,-0.042944,0
14.7,0.851546,6.458378,7.497461,0.098158,-0.008018,0.008094,0
14.8,0.998206,6.829914,6.603592,0.049429,0.016646,0.074576,0
14.9,2.176272,6.141777,6.984948,-0.049862,-0.026954,-0.081168,0
15.0,1.741257,6.540422,7.20108,-0.201402,-0.317955,-0.626656,0
15.1,-0.087936,6.825287,7.526983,-0.11918,-0.366488,-0.476994,0
15.2,-0.040199,6.715696,7.257192,0.054428,-0.206808,-0.062461,0
15.3,0.567936,6.932486,7.201559,0.110628,-0.10962,0.113407,0
15.4,0.110908,6.683393,7.018747,0.153419,0.031001,0.304608,0
15.5,0.411805,7.085866,6.569973,0.171622,0.217071,0.522931,0
15.6,1.638007,6.413482,6.514938,0.046792,0.170737,0.210901,0
15.7,1.106082,6.831269,6.881399,-0.030513,-0.100579,-0.29572,0
15.8,0.52666,6.748478,7.328976,-0.009529,-0.092699,-0.112155,0
15.9,1.311745,6.949235,7.176195,-0.047556,-0.042883,0.083505,0
16.0,1.011327,6.598807,6.591509,-0.000702,-0.01628,-0.007239,0
16.1,0.962812,7.205238,6.95773,-0.058643,-0.032681,0.00714,0
16.2,1.24343,6.625008,7.066604,-0.017287,0.000672,-0.025565,0
16.3,1.079761,6.822655,6.416952,0.010507,-0.042425,-0.171012,0
16.4,0.985245,6.856992,7.716733,-0.020647,-0.105924,-0.12935,0
16.5,0.762353,6.874699,6.736394,0.040653,-0.051954,-0.023518,0
16.6,1.177508,6.635058,6.725746,0.014936,-0.035002,-0.00339,0
16.7,0.985963,6.799804,7.373842,0.011179,-0.007361,0.014813,0
16.8,1.39358,6.73424,7.40782,0.017929,-0.031887,-0.033323,0
16.9,0.812842,6.58756,6.848139,0.01292,0.022571,0.045234,0
17.0,0.932124,6.539345,7.043752,0.035766,0.101892,0.212948,0
17.1,1.435694,7.080841,6.611728,0.005559,0.097891,0.033659,0
17.2,1.459143,6.806145,6.213442,-0.119424,-0.063744,-0.308945,0
17.3,0.962513,6.537191,7.291678,-0.131183,-0.167186,-0.426193,0
17.4,0.388355,6.867162,7.388916,-0.090866,-0.187719,-0.294039,0
17.5,0.420419,7.188638,7.085148,0.086376,-0.043616,-0.062094,0
17.6,1.152383,6.125865,7.0678,0.065943,0.021197,0.107329,0
17.7,1.153939,6.725028,7.096514,-0.017196,-0.075136,-0.095386,0
17.8,1.135394,6.568059,6.984769,-0.023976,-0.151769,-0.209099,0
17.9,0.950788,6.578587,7.516574,-0.006109,-0.116614,-0.087384,0
18.0,0.396251,6.619026,7.188518,0.06411,-0.018387,0.116553,0
18.1,1.347279,6.557411,7.020063,0.04777,0.000947,0.059834,0
18.2,1.119243,6.418448,7.319494,0.059101,-0.09373,-0.137139,0
18.3,0.983749,6.782356,7.346264,0.006032,-0.068569,-0.007356,0
18.4,0.924946,6.665327,6.622017,0.092943,0.052321,0.139919,0
18.5,1.64357,6.594619,7.81451,0.028863,0.050587,0.04906,0
18.6,1.013002,6.546643,6.989555,-0.058062,-0.117225,-0.153877,0
18.7,0.923151,6.621538,7.028318,0.027122,-0.108428,-0.096517,0
18.8,0.942054,6.688298,7.386165,0.025778,-0.067837,0.079657,0
18.9,0.303649,6.932366,7.110392,0.105344,0.062278,0.255036,0
19.0,0.940738,6.589475,6.712825,0.138819,0.227242,0.433775,0
19.1,0.938226,6.305447,7.725826,0.08488,0.294956,0.530444,0
19.2,1.844149,6.620701,6.733164,0.072754,0.322903,0.463127,0
19.3,2.580061,6.315616,7.144968,-0.066218,0.110475,-0.151769,0
19.4,1.622573,6.532645,6.761279,-0.206625,-0.20128,-0.562546,0
19.5,0.530967,6.827441,6.722994,-0.126204,-0.189887,-0.399109,0
19.6,0.849093,6.764151,7.685866,0.070097,0.045296,0.033903,0
19.7,0.804288,6.499205,7.056135,0.046922,0.167186,0.281609,0
19.8,1.739941,6.437172,7.016115,-0.040134,0.008827,-0.053145,0
19.9,0.766541,6.452964,7.35769,-0.041967,-0.10571,-0.184054,0
20.0,1.188395,6.776115,7.294879,0.054489,-0.007788,-0.000153,0
20.1,1.089572,6.683393,6.594021,0.035247,0.034606,0.048075,0
20.2,1.4534,6.575716,7.391788,-0.010385,-0.052412,-0.091355,0
20.3,0.477488,6.668558,6.948877,-0.020892,-0.025443,0.025045,0
20.4,1.350031,6.738548,7.257072,0.059193,0.085551,0.158978,0
20.5,1.480858,6.47094,6.827172,0.064866,0.08533,0.051656,0
20.6,1.514657,6.593921,7.346963,-0.036881,-0.030238,-0.1588,0
20.7,1.352543,6.774799,6.926384,-0.005375,-0.09386,-0.219087,0
20.8,0.475574,6.846314,7.312616,-0.035736,-0.094722,-0.162414,0
20.9,0.771087,6.660542,7.108717,0.073182,0.005162,0.056261,0
21.0,1.202034,6.945407,6.898268,0.132374,0.07761,0.040653,0
21.1,1.041955,6.763552,6.796215,0.011271,0.049327,0.13494,0
21.2,2.417588,6.527261,6.929255,-0.082131,-0.065179,-0.157206,0
21.3,0.79023,6.792266,7.048897,-0.096639,-0.235886,-0.498893,0
21.4,0.562313,6.946962,7.324311,-0.052443,-0.252593,-0.366244,0
21.5,0.459183,6.707919,7.104769,0.023579,-0.158794,-0.098441,0
21.6,0.75015,6.829714,6.999006,0.099174,0.044776,0.253417,0
21.7,1.227757,6.770372,6.833184,0.145752,0.172203,0.325866,0
21.8,0.992662,6.622974,6.895158,0.047342,-0.007544,-0.009255,0
21.9,-0.081595,7.336753,7.179425,0.04551,-0.01234,0.103236,0
22.0,0.6836,7.18116,6.631858,0.233503,0.277982,0.565661,0
22.1,1.461536,6.895038,6.192625,0.129076,0.330264,0.50769,0
22.2,2.04706,7.194979,6.896593,0.010537,0.211481,0.201585,0
22.3,1.758964,7.595178,6.23103,-0.058368,0.109131,-0.085735,0
22.4,2.090131,7.109794,6.24419,-0.095814,0.007941,-0.413403,0
22.5,0.634337,7.056075,5.606623,-0.218842,-0.189765,-0.760038,0
22.6,0.68686,6.999963,7.32443,-0.225195,-0.382065,-0.747088,0
22.7,-0.071306,7.036693,5.875815,-0.124555,-0.329195,-0.487256,0
22.8,0.444467,7.475896,8.181061,-0.078679,-0.217498,-0.064019,0
22.9,0.046301,6.572845,6.458707,0.016096,-0.090286,0.0624,0
23.0,0.315404,6.421438,4.848158,0.011644,-0.152105,-0.017448,0
23.1,0.718923,7.147361,7.866764,0.180572,-0.184054,-0.118202,0
23.2,0.533241,7.073423,7.039924,0.347704,-0.192667,-0.011912,0
23.3,1.127498,7.033463,5.616672,0.227853,-0.033078,0.172661,0
23.4,1.048415,6.969455,7.842955,-0.136956,-0.243643,0.05959,0
23.5,1.001037,6.069155,8.665607,-0.244743,0.098655,0.067898,0
23.6,1.428276,7.422177,5.98074,0.225195,0.141751,0.055742,0
23.7,0.812244,6.442077,7.846066,0.242635,-0.107604,-0.246728,0
23.8,2.101138,6.689973,7.670193,-0.226997,-0.412395,-0.254364,0
23.9,0.774198,6.721678,6.447819,0.185275,-0.076083,-0.278738,0
24.0,-0.117098,6.604639,6.475576,-0.10503,-0.176998,-0.083918,0
24.1,0.680399,7.501739,8.085467,0.198103,-0.084147,0.130694,0
24.2,1.057867,6.255556,6.399604,0.087995,0.180633,0.6061,0
24.3,1.512384,6.548079,6.955217,0.066615,0.099479,0.25638,0
24.4,0.728734,6.985367,7.759924,0.195965,0.312549,0.285671,0
24.5,0.047258,7.027481,5.45755,0.006536,0.212275,0.540004,0
24.6,1.91689,6.903174,6.060062,0.133779,0.203052,0.230907,0
24.7,2.009852,6.972207,8.712745,-0.238298,0.15687,-0.122295,0
24.8,1.981496,6.741658,6.236773,-0.109253,-0.066432,-0.264474,0
24.9,0.277687,6.89444,5.141219,-0.438082,-0.312793,-0.392358,0
25.0,1.491686,6.297909,5.858706,0.430415,-0.013103,-0.348559,0
25.1,0.13328,7.359366,6.376992,0.110353,-0.078679,-0.083719,0
25.2,2.207977,6.34098,6.568657,0.252409,0.046243,0.046731,0
25.3,4.045964,6.112316,8.935697,-0.370871,-0.642172,-0.430774,0
25.4,1.688495,6.692366,9.301261,-0.068111,-0.366824,-1.022007,0
25.5,-2.743969,7.220462,1.137787,1.147846,-0.489608,-1.307831,0
25.6,4.257191,5.392824,10.585369,-0.951544,-0.445198,-0.262489,0
25.7,0.407139,6.49113,8.688937,-0.038729,-0.465112,-0.942198,0
25.8,-0.262732,6.439445,7.952067,-0.142392,-0.433408,-0.727265,0
25.9,0.609332,5.69755,7.65452,-0.020892,-0.372566,-0.045968,0
26.0,0.34002,5.277729,3.56399,-0.491777,-0.256716,0.102656,0
26.1,-0.48658,6.649535,6.444589,-0.30757,-0.591439,-0.915045,0
26.2,0.109232,6.737949,6.520322,0.200089,-0.440128,-0.271927,0
26.3,1.154537,6.799206,8.486983,0.058246,-0.328401,-0.119882,0
26.4,-2.201158,5.693362,6.89444,0.001038,-0.065576,0.203448,0
26.5,0.696461,5.98774,7.59796,0.339832,0.218422,0.659848,0
26.6,0.527139,8.257033,6.67442,0.099663,0.349598,0.413311,0
26.7,0.515773,7.108478,5.690611,-0.013256,0.084299,0.115545,0
26.8,2.094916,5.931089,7.846185,-0.372933,0.029902,0.086254,0
26.9,1.409373,6.894679,6.440402,-0.001558,-0.077244,-0.584598,0
27.0,0.65001,6.266563,8.02457,-0.133382,-0.368871,-0.716392,0
27.1,-0.414198,6.902815,6.669754,0.143736,-0.37669,-0.391962,0
27.2,1.323111,6.220501,7.28794,-0.458118,-0.219911,-0.076297,0
27.3,0.799801,7.400642,6.613044,0.341412,-0.059101,-0.238024,0
27.4,1.6136,6.482156,7.593982,-0.514318,-0.127701,-0.093768,0
27.5,0.243948,7.207541,6.899823,-0.111147,-0.005131,-0.505216,0
27.6,1.152742,5.855596,6.230551,0.058613,-0.185611,-0.401124,0
27.7,0.935714,7.638967,7.599006,-0.123211,-0.440036,-0.665659,0
27.8,0.035444,5.661717,7.589286,-0.041845,-0.358196,-0.513546,0
27.9,0.277687,7.875378,8.246265,0.288084,-0.447275,-0.704327,0
28.0,0.756012,5.970092,6.070232,0.097891,-0.65219,-0.371528,0
28.1,-1.123789,5.942216,8.129735,0.166063,-0.321406,-0.012339,0
28.2,0.589352,7.106085,7.351469,0.356165,0.269972,0.76746,0
28.3,0.038405,6.490412,7.153463,0.174982,-0.149876,0.668958,0
28.4,1.20024,6.657311,7.158607,0.279318,0.132772,0.384448,0
28.5,1.162792,6.451528,7.163633,0.096853,0.039828,0.13155,0
28.6,0.980339,5.934918,6.104091,0.094317,-0.065027,-0.187383,0
28.7,1.819981,6.992067,8.454441,-0.097158,-0.034789,-0.057605,0
28.8,0.351266,6.500701,6.482755,0.087842,0.04725,0.096364,0
28.9,0.89013,6.880442,7.3078,-0.193278,0.166613,0.67186,0
29.0,1.032024,6.36431,5.703293,0.412608,0.279288,0.499046,0
29.1,2.338536,6.695566,8.698359,-0.136872,0.107054,0.431843,0
29.2,2.167299,6.415875,7.099624,0.056688,0.27886,0.232709,0
29.3,2.146841,6.722875,4.845585,0.226692,0.303478,-0.295628,0
29.4,3.277329,6.21093,9.348399,-0.577023,-0.554451,-1.166446,0
29.5,0.561356,6.628358,6.837012,-0.231701,-0.593486,-1.513051,0
29.6,-0.973998,7.106205,6.331169,0.129595,0.088789,-0.262305,0
29.7,2.34688,5.959205,7.69125,-0.026878,-0.224187,-0.142423,0
29.8,1.17021,6.252804,7.197132,-0.100915,-0.374063,-0.729159,0
29.9,-0.691286,6.463851,6.869914,-0.105527,-0.456896,-0.680595,0
30.0,2.53388,6.295755,8.922836,-0.081337,-0.473145,-0.452131,0
30.1,-0.920758,6.487421,7.256713,-0.023121,-0.512057,-0.920115,0
30.2,-0.222533,6.64756,8.265109,-0.105756,-0.647326,-0.579558,0
30.3,-0.022612,6.290372,7.228717,0.049297,-0.328309,0.031154,0
30.4,-0.852922,5.731767,7.97121,0.331547,0.13436,0.791223,0
30.5,1.017428,6.192146,8.702098,0.347063,0.51728,1.36965,0
30.6,0.911307,6.682914,4.615157,0.531483,0.677754,0.998672,0
30.7,1.881357,6.005147,8.917452,0.09725,0.361571,0.766208,0
30.8,2.215874,6.850771,6.12084,-0.091416,-0.140927,-0.052473,0
30.9,1.889492,6.081,7.573523,-0.037599,-0.144164,-0.65616,0
31.0,0.49017,7.255038,6.435257,-0.114079,-0.370948,-0.594005,0
31.1,-0.261296,7.488219,7.232067,0.084849,-0.060262,0.112491,0
31.2,1.648415,5.784888,11.053166,0.327179,0.584506,1.261589,0
31.3,1.958675,6.68794,5.549105,0.705472,0.820888,1.305456,0
31.4,1.716491,5.826403,5.702216,0.092546,0.343184,0.610773,0
31.5,2.746243,6.345167,7.423373,0.208152,0.344192,0.187108,0
31.6,1.592304,6.698946,6.399245,0.216613,0.451918,0.335945,0
31.7,1.700459,7.651888,5.612844,0.075045,0.35986,0.153235,0
31.8,4.224887,6.437052,6.27757,-0.123944,-0.121928,-0.636857,0
31.9,0.874816,7.129295,6.31789,-0.414777,-0.723417,-1.587546,0
32.0,1.154417,6.500821,7.344051,-0.333776,-0.732946,-1.300195,0
32.1,-1.187677,6.776235,7.644829,-0.263374,-0.732213,-1.157802,0
32.2,-0.26333,8.113104,6.585048,0.121257,-0.292116,-0.161268,0
32.3,-0.547358,5.628158,9.32471,0.197829,0.31933,0.970084,0
32.4,1.551267,6.147879,6.068198,0.383745,0.812725,1.65297,0
32.5,2.136073,6.83115,6.561239,0.13045,0.334173,0.695928,0
32.6,1.979463,6.60105,7.35449,0.06899,0.148707,0.382783,0
32.7,0.825644,6.842755,6.719046,0.240223,0.512913,0.893237,0
32.8,1.827279,7.053562,5.97763,0.294834,0.558177,0.90466,0
32.9,2.765984,6.900541,6.863333,0.232862,0.515814,0.668928,0
33.0,2.090848,6.957371,6.090332,0.11301,0.342634,0.397551,0
33.1,2.915894,6.896474,6.405467,0.120493,0.293948,0.257846,0
33.2,3.046781,6.793343,6.556932,-0.006017,0.130389,-0.038393,0
33.3,2.705804,6.916574,6.23079,-0.060506,-0.042363,-0.380416,0
33.4,2.90034,6.789754,7.008219,-0.136589,-0.150242,-0.481026,0
33.5,1.275524,6.969246,5.521438,-0.217582,-0.327996,-0.63782,0
33.6,0.05015,7.387242,6.676075,-0.040852,-0.092775,-0.0984,0
33.7,1.40354,6.962067,7.67124,0.207045,0.539203,1.007888,0
33.8,3.4471,6.60084,6.131129,0.262763,0.566363,0.801302,0
33.9,2.762992,6.434659,6.664848,-0.119913,-0.073915,-0.396757,0
34.0,0.194895,7.374201,6.953543,-0.036194,-0.034514,-0.160443,0
34.1,2.355136,7.237451,5.875097,0.109375,0.225531,0.3222,0
34.2,2.284906,6.340143,7.582257,-0.017898,0.071196,0.019639,0
34.3,0.317528,7.375038,6.239285,-0.000489,0.047617,0.046639,0
34.4,1.017787,6.841439,6.539943,0.147157,0.365053,0.666606,0
34.5,3.560401,7.244749,6.155297,0.223119,0.462425,0.555948,0
34.6,2.741816,6.756853,6.361918,-0.126449,-0.092821,-0.532796,0
34.7,0.342772,7.729774,6.841798,-0.206411,-0.31371,-0.622716,0
34.8,0.664726,6.85771,6.513742,0.057818,0.037782,0.189612,0
34.9,1.675424,7.21451,6.712316,0.036919,0.125762,0.341092,0
35.0,-0.007538,7.119245,6.78114,0.190376,0.279623,0.584506,0
35.1,0.142612,6.767022,7.021619,0.365358,0.691132,1.359418,0
35.2,3.018067,6.56782,7.001878,0.466273,0.988196,1.576489,0
35.3,5.614878,6.3009,6.057191,0.213467,0.65949,0.488295,0
35.4,3.396732,6.786164,5.816354,-0.273545,-0.209924,-1.26055,0
35.5,0.86357,6.740222,6.945407,-0.314046,-0.420947,-1.397964,0
35.6,0.612682,7.214719,6.693203,-0.02587,-0.171287,-0.455216,0
35.7,0.806022,6.931768,7.098189,-0.04496,-0.014539,0.092821,0
35.8,1.773201,6.897909,6.333203,0.111697,0.160841,0.182374,0
35.9,1.038246,7.252287,6.656713,0.078741,0.091966,0.068661,0
36.0,1.34357,6.938886,7.271788,0.068188,0.202998,0.224645,0
36.1,2.008894,6.838807,6.61783,-0.086376,0.081306,0.153755,0
36.2,1.333879,6.779225,6.414679,-0.097738,-0.022419,-0.187413,0
36.3,0.597129,7.142217,6.947441,-0.010507,-0.01463,-0.026267,0
36.4,1.380898,7.011209,6.349475,-0.030543,0.124494,0.25247,0
36.5,2.061895,6.563871,6.622735,0.010446,0.249569,0.289886,0
36.6,2.447977,6.733044,6.98441,-0.07083,0.148379,-0.059743,0
36.7,2.297229,6.395895,6.83103,-0.189002,-0.10513,-0.559185,0
36.8,1.389991,6.976155,7.456514,-0.195141,-0.360288,-0.914587,0
36.9,0.191306,6.728857,7.651289,-0.13213,-0.444648,-0.74556,0
37.0,-1.64016,7.029275,7.133004,0.14337,-0.176143,-0.040256,0
37.1,0.202433,6.580143,6.911189,0.377301,0.372414,1.07222,0
37.2,2.098804,6.644121,6.303293,0.280158,0.527749,0.992235,0
37.3,2.330489,6.703253,6.987401,-0.158978,0.10064,-0.009835,0
37.4,1.214836,6.843832,7.039924,-0.153999,-0.214169,-0.562454,0
37.5,0.657069,7.081798,7.13779,-0.090255,-0.167346,-0.179411,0
37.6,0.241914,6.732087,7.103812,0.118416,0.173302,0.40311,0
37.7,1.505564,6.580741,7.102615,0.147829,0.288328,0.544952,0
37.8,2.29699,6.679325,6.764031,-0.024251,0.124219,0.044746,0
37.9,1.693401,6.940023,6.71761,-0.155526,-0.167407,-0.389426,0
38.0,0.803031,6.750272,6.596294,-0.113285,-0.13717,-0.352958,0
38.1,1.089691,6.845746,7.176554,-0.058979,-0.159008,-0.178678,0
38.2,1.018744,6.885108,7.035736,0.028863,-0.040287,-0.092729,0
38.3,1.502543,7.007082,6.666254,0.006223,-0.045052,-0.073609,0
38.4,0.980818,6.404031,6.646424,-0.003879,-0.09444,-0.248378,0
38.5,0.507518,6.824928,7.84104,0.006445,-0.122112,-0.140468,0
38.6,0.447099,7.05787,7.116135,0.149173,0.057788,0.263741,0
38.7,1.326222,6.37783,6.024649,0.183321,0.321956,0.572503,0
38.8,3.191547,6.297191,7.292247,-0.055833,0.072815,-0.034453,0
38.9,1.194856,6.508837,6.780183,-0.227578,-0.36099,-0.683405,0
39.0,0.091406,7.013483,6.941578,-0.181091,-0.346483,-0.348071,0
39.1,-0.272423,6.592346,6.711509,-0.050885,-0.126235,0.15629,0
39.2,1.287937,6.735197,7.792945,0.078435,0.20971,0.561782,0
39.3,1.114936,6.904011,7.203951,0.186741,0.334784,0.579588,0
39.4,1.983889,6.596055,6.471269,0.155129,0.306135,0.348804,0
39.5,1.85025,6.859385,6.95103,0.035491,0.081245,-0.151647,0
39.6,0.849153,6.715905,5.966054,0.004581,0.055474,-0.088652,0
39.7,1.678445,6.996135,7.370612,-0.082497,0.050366,-0.041172,0
39.8,0.86022,6.862854,6.52786,-0.019914,0.015455,-0.269025,0
39.9,0.343011,6.920162,6.373044,-0.024007,-0.083688,-0.24343,0
40.0,2.377509,5.509833,3.74393,0.811228,0.62299,-0.190834,0
40.1,0.904966,7.358528,4.47398,0.116309,-0.3795,-0.131397,0
40.2,1.421935,6.9344,9.534322,-0.197798,-0.139766,-0.102228,0
40.3,2.110111,7.082874,3.78389,-0.240131,0.185275,0.466914,0
40.4,0.716531,5.307639,0.515175,-0.034727,-0.307082,-0.231365,0
40.5,0.740339,6.537311,9.049416,-1.070907,-0.174982,-0.397092,0
40.6,1.989871,5.296632,8.71813,-0.350087,-0.169729,-0.117072,0
40.7,0.244427,7.75789,6.375915,0.047739,-0.297278,-0.311847,0
40.8,-1.16698,9.315139,5.458387,0.409249,-0.177701,-0.046976,0
40.9,3.356382,1.542174,10.620543,-0.531491,0.515188,1.379066,0
41.0,0.563908,6.841479,7.116055,0.04584,0.345928,0.548836,0
41.1,2.516801,7.130462,5.315506,0.136758,0.104076,0.012866,0
41.2,1.804308,6.776952,9.369815,-0.148104,-0.082925,-0.182954,0
41.3,-0.394935,7.157292,5.091448,0.1591,0.057177,0.133688,0
41.4,1.808854,6.746085,7.06768,0.178922,0.326477,0.450421,0
41.5,2.373321,7.217232,7.760881,-0.266215,0.281028,0.274553,0
41.6,1.648535,6.720003,5.956214,0.054275,0.126205,-0.23448,0
41.7,1.808974,7.203952,6.533124,-0.133993,-0.282739,-0.890702,0
41.8,0.729093,6.275058,6.981539,-0.189551,-0.308976,-0.607688,0
41.9,-0.546281,7.180861,5.036293,0.101098,-0.158336,-0.243552,0
42.0,1.674497,7.537391,9.776954,0.178678,-0.106015,-0.082039,0
42.1,0.666162,6.28427,5.97081,0.096028,0.115026,0.280204,0
42.2,1.958525,6.509226,6.252894,-0.028978,-0.140843,-0.099991,0
42.3,0.378066,6.88104,7.176793,-0.060537,-0.149998,-0.154701,0
42.4,0.026082,7.121519,7.020781,0.057299,0.099388,0.386678,0
42.5,1.199043,7.146285,6.592346,0.12428,0.318077,0.626869,0
42.6,2.271626,6.522835,6.449375,-0.148532,0.075259,0.111971,0
42.7,1.279323,6.58756,6.760562,-0.244346,-0.273789,-0.571678,0
42.8,0.027158,7.12786,7.123433,-0.073121,-0.167377,-0.249294,0
42.9,0.904726,6.632785,6.42784,0.053909,0.022999,0.194225,0
43.0,1.213759,6.735676,6.907959,-0.005162,0.005864,0.113835,0
43.1,1.537389,7.176554,7.280044,0.011912,-0.037079,-0.093768,0
43.2,1.015155,6.839046,7.155856,0.037996,-0.014539,-0.031337,0
43.3,0.933051,6.235098,7.281958,0.116408,0.02077,-0.010996,0
43.4,0.556571,7.23111,6.19418,0.055742,-0.032559,0.055833,0
43.5,1.211247,6.885347,6.905447,0.008491,0.008644,0.144164,0
43.6,1.104407,6.446862,6.464809,-0.005192,0.059773,0.227914,0
43.7,1.359123,7.147122,6.931648,-0.000947,0.052748,0.139858,0
43.8,1.5801,6.313104,7.832187,0.003848,0.06802,0.121165,0
43.9,0.897548,6.819066,7.140901,0.013928,0.16472,0.343917,0
44.0,1.846511,6.622286,7.841878,0.081436,0.182801,0.287946,0
44.1,1.991666,6.61436,7.102975,0.135032,0.175654,0.046578,0
44.2,1.641237,7.121758,7.058229,0.007514,0.012706,-0.156015,0
44.3,0.932004,6.492805,6.289295,0.016585,0.001191,-0.149509,0
44.4,0.80351,7.678807,6.866564,0.070066,0.067378,-0.008949,0
44.5,0.862852,6.740342,6.742974,0.073518,0.212428,0.13439,0
44.6,0.885823,6.711868,5.978348,0.015455,0.158275,0.195752,0
44.7,1.877887,6.888937,7.81436,-0.102106,0.116553,0.086835,0
44.8,1.335793,6.583732,6.59773,-0.056474,0.067012,-0.133749,0
44.9,1.640729,6.621838,6.880262,-0.091363,-0.010156,-0.225676,0
45.0,1.207578,6.670192,7.008179,-0.124591,-0.060043,-0.284256,0
45.1,1.170928,6.76092,7.150951,-0.152777,-0.147829,-0.302195,0
45.2,0.729662,6.562017,6.35758,-0.072922,-0.179098,-0.30318,0
45.3,1.089213,6.795616,7.295118,-0.101953,-0.174768,-0.236282,0
45.4,1.49037,6.72084,7.579266,-0.048839,-0.222111,-0.311113,0
45.5,0.701815,6.630392,7.186723,-0.043066,-0.28396,-0.316092,0
45.6,0.942054,6.663532,8.031868,0.070769,-0.222752,-0.129076,0
45.7,0.405942,6.720242,6.712705,0.191598,-0.053023,0.131,0
45.8,1.070908,6.855078,6.55107,0.132466,0.018784,0.223393,0
45.9,1.663012,6.013761,7.900502,0.054749,-0.001604,0.095829,0
46.0,0.90339,7.000202,6.871688,0.03711,-0.096669,-0.081729,0
46.1,1.029362,6.690033,7.029514,-0.007865,-0.14279,-0.056696,0
46.2,0.505125,7.021977,6.891808,0.075534,-0.010049,0.204548,0
46.3,0.999003,6.924111,7.263174,0.084055,0.143431,0.398375,0
46.4,0.665325,7.005945,6.621179,0.170034,0.276813,0.496389,0
46.5,1.772124,6.214639,7.493244,0.063225,0.218995,0.35534,0
46.6,1.366063,7.24786,6.795138,0.082222,0.170828,0.137689,0
46.7,1.369054,6.477132,6.523194,0.065576,0.26652,0.269941,0
46.8,2.119682,6.695477,7.22776,-0.025259,0.174555,0.046304,0
46.9,1.134078,7.047222,6.418268,-0.012553,0.108734,-0.156046,0
47.0,1.124387,6.98429,6.61077,-0.010721,0.08714,-0.105741,0
47.1,1.689811,6.812605,6.922197,-0.055986,0.085735,-0.071991,0
47.2,1.135155,6.945766,6.382017,-0.079321,0.015241,-0.221408,0
47.3,1.336092,6.79083,7.061519,-0.19456,-0.142981,-0.351476,0
47.4,1.052603,6.662336,7.263533,-0.157023,-0.202899,-0.394252,0
47.5,0.969452,6.871349,7.33795,-0.069975,-0.168324,-0.196332,0
47.6,0.332363,6.606583,6.959764,0.057085,-0.02755,-0.034941,0
47.7,-0.293958,6.192027,5.190272,-0.000581,-0.039798,0.080909,0
47.8,0.822892,6.495437,5.444628,0.534171,0.229349,0.011087,0
47.9,2.527658,7.389754,8.296634,-0.363648,-0.021319,0.192545,0
48.0,1.214238,6.585407,6.703971,-0.235061,-0.132435,-0.182679,0
48.1,1.014916,6.78449,7.610133,-0.048044,-0.049724,-0.251463,0
48.2,1.227518,5.973443,6.531688,-0.21814,-0.335945,-0.031551,0
48.3,1.959363,8.929775,6.838448,-0.282586,0.036408,0.083719,0
48.4,-0.487059,6.144649,7.432346,-0.226203,-0.130847,-0.784381,0
48.5,0.85334,6.268896,6.988238,-0.18074,-0.216819,-0.362205,0
48.6,-0.17671,6.419106,5.761199,0.034941,-0.177304,-0.116247,0
48.7,1.65021,7.473025,6.566384,-0.259037,-0.661047,0.036255,0
48.8,1.251087,6.32088,8.007461,-0.626472,-0.465051,-0.258854,0
48.9,0.265244,6.763193,7.185766,-0.273332,-0.061667,-0.237596,0
49.0,0.857588,5.681039,8.57121,-0.264596,0.122937,0.153113,0
49.1,-0.434178,7.192466,6.732924,0.129473,-0.061147,-0.147707,0
49.2,1.302533,6.276374,6.010651,0.024037,-0.213253,-0.268475,0
49.3,1.49695,6.671548,8.847222,-0.122478,-0.269483,-0.023915,0
49.4,0.310229,6.588637,4.122235,0.682183,-0.240803,-0.233717,0
49.5,1.964657,7.098757,10.891232,-0.457194,-0.861701,0.080939,0
49.6,0.298804,7.09791,6.481957,0.303625,0.382427,0.148898,0
49.7,0.7334,6.146683,7.063971,0.212978,0.124739,0.389549,0
49.8,2.966502,6.463164,7.252945,-0.342733,0.067119,0.136223,0
49.9,1.491686,7.130253,6.899345,-0.245995,-0.231304,-0.40143,0
50.0,-0.110549,6.38752,6.449614,0.086101,-0.177395,-0.297797,0
50.1,0.734477,6.897192,7.204071,-0.038362,-0.035613,0.183993,0
50.2,1.141975,6.044509,8.119087,0.086529,0.200516,0.194011,0
50.3,0.625962,7.999446,5.39402,0.116125,-0.085582,0.129778,0
50.4,0.345284,7.393822,7.041598,0.137414,0.277424,0.423757,0
50.5,1.681915,5.781299,7.462735,-0.028008,0.256197,0.363984,0
50.6,2.044787,7.143413,6.308198,-0.145172,-0.063163,-0.1996,0
50.7,0.691376,7.265058,6.129664,-0.236558,-0.229227,-0.233083,0
50.8,1.040379,6.441478,8.284949,-0.386576,-0.192422,0.004632,0
50.9,0.829263,6.741478,5.421687,-0.113392,-0.264619,-0.091286,0
51.0,1.691367,6.996255,7.838289,-0.379469,-0.193736,-0.059132,0
51.1,1.23015,6.638647,6.841319,-0.102289,-0.129045,-0.164964,0
51.2,0.702533,6.969096,6.509793,-0.096883,-0.170065,-0.137139,0
51.3,1.28028,6.471269,5.412445,0.307418,0.077275,-0.229991,0
51.4,1.301696,7.05787,9.009695,-0.218934,-0.135337,-0.069486,0
51.5,0.372802,6.438368,5.938507,0.194774,-0.051068,0.130267,0
51.6,0.734597,7.500781,6.443034,0.043493,0.179105,0.413464,0
51.7,1.749153,5.332884,9.076096,-0.194957,-0.191842,0.509492,0
51.8,1.986282,6.812845,6.708876,-0.320612,-0.160932,0.004368,0
51.9,1.469073,6.389793,7.207182,-0.025717,0.062583,-0.37559,0
52.0,0.430708,7.770931,6.337511,0.090713,-0.048136,-0.360532,0
52.1,1.091725,6.559684,6.915975,-0.041844,-0.121807,-0.145844,0
52.2,0.406421,7.907441,6.423891,-0.274309,-0.164475,-0.055192,0
52.3,-0.319143,5.349903,6.259325,0.155236,-0.287679,-0.039706,0
52.4,0.782453,6.749555,7.793064,0.009071,-0.08094,0.219942,0
52.5,1.115654,7.167461,7.217591,0.025779,-0.101892,0.208274,0
52.6,0.923271,6.884749,6.857949,-0.018417,-0.031032,0.097402,0
52.7,1.089811,5.673262,7.011569,0.091202,0.02303,0.168415,0
52.8,0.83019,7.629754,6.563991,0.202135,0.179716,0.370917,0
52.9,1.361157,7.207421,6.963353,0.160627,0.205648,0.223393,0
53.0,1.445504,6.542815,6.966942,0.049419,0.092393,0.07422,0
53.1,1.403869,6.873622,6.879245,-0.009468,0.001466,0.016616,0
53.2,1.429831,6.89755,7.336514,0.077763,0.062614,0.038057,0
53.3,0.922732,7.135995,6.545716,0.035621,0.021266,0.051427,0
53.4,1.031306,6.312147,6.65791,0.029138,0.120646,0.22434,0
53.5,1.589732,6.88116,7.881758,0.15717,0.308716,0.408261,0
53.6,1.812862,6.885946,5.819644,0.05116,0.281609,0.198722,0
53.7,2.17041,6.573682,7.45771,-0.213436,-0.020006,-0.089125,0
53.8,1.646262,6.755776,6.443752,-0.073273,0.06747,-0.226539,0
53.9,1.272024,7.379226,6.312745,-0.054306,-0.008644,-0.369176,0
54.0,1.385803,7.004151,6.772884,-0.124922,-0.094959,-0.350392,0
54.1,0.362393,7.576993,6.385487,0.044929,-0.018754,-0.291596,0
54.2,1.146282,6.866205,7.339864,-0.061208,-0.039676,-0.196088,0
54.3,0.50668,6.769894,6.794659,-0.084544,-0.089278,-0.237413,0
54.4,1.429113,6.908677,6.866564,-0.069058,-0.135918,-0.305738,0
54.5,0.58337,7.05763,6.737112,-0.11695,-0.231701,-0.427453,0
54.6,0.595693,6.850771,7.270951,-0.095173,-0.258213,-0.347949,0
54.7,0.317169,6.926025,6.894201,-0.012767,-0.219026,-0.186986,0
54.8,0.719492,7.003343,7.063762,-0.018097,-0.218002,-0.15516,0
54.9,0.258903,6.638288,6.897431,0.063805,-0.216888,-0.144103,0
55.0,0.605504,6.992426,6.865128,0.090713,-0.214475,-0.051771,0
55.1,0.759362,6.672266,7.040641,0.041264,-0.178647,0.021136,0
55.2,0.63685,6.797052,7.872865,0.178556,-0.046518,0.228372,0
55.3,0.268235,6.143213,2.829872,0.944916,0.290497,0.582429,0
55.4,1.75693,6.03075,4.17727,-0.121623,0.128465,0.192606,0
55.5,2.420699,7.182297,7.863653,0.032925,0.265115,0.120218,0
55.6,0.049172,7.104888,4.432465,0.169729,-0.44471,-0.089186,0
55.7,0.946601,8.475857,7.197371,0.043035,-0.191567,0.12706,0
55.8,1.555335,5.737869,4.188875,1.375301,-0.217682,0.374094,0
55.9,1.287937,6.422097,8.418428,-0.418198,0.124861,-0.191689,0
56.0,1.612015,7.864012,8.62134,0.025465,0.303027,0.096211,0
56.1,0.585045,6.09416,5.368417,-0.015577,0.374216,0.226417,0
56.2,3.111866,6.888817,7.495397,-0.359036,-0.258823,-0.35085,0
56.3,1.619462,6.528936,6.710791,-0.122264,-0.33903,-0.60778,0
56.4,0.605743,6.493403,7.984849,0.161177,-0.588324,-1.030834,0
56.5,-0.191785,6.684829,5.092644,0.170737,-0.321071,-0.138361,0
56.6,0.934278,6.97783,10.482119,-0.778975,-0.123303,0.351308,0
56.7,1.527339,5.651368,4.906124,0.784839,-0.215025,0.016585,0
56.8,1.290928,6.668797,7.01767,-0.333349,-0.447061,-0.068417,0
56.9,1.323231,5.957889,9.376036,-0.391473,-0.168293,0.009743,0
57.0,0.002632,6.918129,2.880839,0.20351,-0.118202,-0.016249,0
57.1,1.478166,6.459305,9.271111,-0.101098,-0.267528,-0.025076,0
57.2,0.498305,7.016833,5.595616,-0.043249,-0.207786,-0.051282,0
57.3,1.45693,5.802296,8.868399,-0.209298,-0.181198,0.256716,0
57.4,0.250289,7.900741,6.934879,0.147096,-0.038454,0.230204,0
57.5,1.600798,4.62413,7.415836,-0.241139,-0.006323,0.562148,0
57.6,0.475933,6.452725,5.937072,0.160871,0.30925,0.482705,0
57.7,1.833142,6.590432,7.839964,-0.112949,0.174707,0.566485,0
57.8,1.718645,6.980582,6.340382,0.185733,0.272659,0.260228,0
57.9,1.915335,6.416593,8.59454,-0.056841,0.174707,0.217957,0
58.0,1.623171,6.243353,6.646543,0.137261,0.329287,0.347154,0
58.1,2.09025,6.566025,6.032665,0.032345,0.214994,-0.074556,0
58.2,1.453281,6.580501,6.346842,-0.073304,-0.07025,-0.459676,0
58.3,1.013959,6.657431,7.510353,-0.042669,-0.037751,-0.1507,0
58.4,0.982254,7.179066,7.430462,0.028214,0.072311,0.160543,0
58.5,1.142334,6.34756,7.485348,-0.014569,0.161971,0.303997,0
58.6,1.488336,6.135078,6.889535,-0.078741,0.230021,0.253356,0
58.7,1.392981,6.611728,7.035138,0.098166,0.3025,0.228127,0
58.8,1.011566,6.451648,5.761917,0.049694,0.281883,0.173699,0
58.9,1.630469,5.855596,6.922077,0.683039,0.730655,-0.313129,0
59.0,2.654478,7.944171,9.219306,-0.523083,-0.182649,-0.137292,0
59.1,2.181417,6.153502,7.475537,0.080512,0.006384,-0.435027,0
59.2,1.054038,6.33775,6.054798,0.033567,-0.251646,-0.522381,0
59.3,1.269393,8.107481,6.333084,-0.017807,-0.223088,-0.2693,0
59.4,0.33679,5.676732,9.333085,0.053634,-0.293765,-0.52739,0
59.5,1.096391,6.904251,7.48786,-0.409921,-0.103236,0.257693,0
59.6,0.145005,6.979385,6.128138,0.418687,-0.026359,-0.057207,0
59.7,1.759771,4.912315,8.193922,0.071853,0.058528,0.160161,0
59.8,1.074377,7.452087,7.112306,0.006567,-0.000855,0.098808,0
59.9,1.046262,6.578587,6.950791,-0.054123,0.030452,-0.037812,0
60.0,0.968734,6.46086,6.694759,-0.007972,-0.135978,-0.153541,0
60.1,1.875853,6.625845,8.881679,-0.05736,-0.021594,-0.036255,0
60.2,0.259262,6.434779,3.874578,0.152106,-0.032132,-0.049236,0
60.3,1.681197,6.505008,8.049934,0.022816,0.01295,-0.076602,0
60.4,1.322393,5.774958,6.635895,-0.29801,-0.00339,-0.354729,0
60.5,1.025564,6.652406,7.444789,-0.336464,-0.373238,-0.46331,0
60.6,2.51043,6.285347,11.196376,-0.116614,-0.265849,-0.265635,0
60.7,-1.772334,7.742127,4.392475,0.901064,0.040394,-0.296384,0
60.8,1.664328,5.41436,4.637529,0.211817,-0.040348,0.130572,0
60.9,0.424247,7.02772,6.8211,0.152136,0.01741,0.353508,0
61.0,1.102613,7.749755,7.094959,0.04215,-0.250424,-0.110017,0
61.1,0.071426,4.397769,9.23821,0.731938,0.311388,0.456896,0
61.2,3.127539,8.105687,5.786443,-0.415907,-0.013164,0.534934,0
61.3,0.671306,5.875935,5.760481,-1.433364,-0.282739,-0.138391,0
61.4,0.351864,6.056115,6.528936,-0.034331,-0.132649,-0.164139,0
61.5,2.001117,7.58453,9.124191,0.158336,0.040562,-0.1591,0
61.6,2.622654,5.46078,11.310873,-0.442205,0.037507,0.302012,0
61.7,-0.736631,7.411768,1.952543,0.451857,0.317192,0.055894,0
61.8,1.828475,6.034699,6.703971,0.319604,0.535178,0.013347,0
61.9,0.887139,6.672745,4.942853,0.058124,0.420733,-0.304241,0
62.0,2.131856,7.033403,10.04821,-0.016417,0.175089,-0.252173,0
62.1,1.382573,6.775277,7.475058,-0.364992,-0.170706,-0.278982,0
62.2,-0.336431,7.198328,6.816553,0.126724,-0.085307,-0.268811,0
62.3,2.228914,5.433263,7.175955,-0.088301,-0.152075,-0.082039,0
62.4,0.806621,6.688298,8.231071,0.036072,0.121959,0.099235,0
62.5,1.033819,6.628358,7.666245,-0.038881,0.088331,-0.194224,0
62.6,1.304328,6.662934,4.686463,-0.222324,-0.231335,-0.632184,0
62.7,2.161676,5.453243,9.251131,-0.559766,-0.461142,-0.868833,0
62.8,2.109034,6.637571,9.109237,-0.578153,-0.719171,-1.245523,0
62.9,-0.55693,6.057431,6.332964,0.040042,-0.930866,-1.431745,0
63.0,0.696162,6.454639,7.6011,0.061278,-0.537332,-0.809281,0
63.1,-0.224128,5.968298,7.63131,0.106978,-0.53359,-0.706745,0
63.2,1.4671,7.765008,8.3511,0.390648,-0.472618,-0.492662,0
63.3,0.209133,4.375277,8.960642,0.066218,-0.496939,-0.744522,0
63.4,0.269193,4.947041,8.202835,0.200333,-0.422657,-0.37107,0
63.5,0.661496,7.428518,7.032864,0.1372,-0.551275,-0.524977,0
63.6,-1.254557,5.605546,7.862217,0.287076,-0.365755,-0.193614,0
63.7,-0.450569,6.586843,7.490611,0.566119,-0.04328,0.338786,0
63.8,0.667717,6.653482,6.993383,0.145569,0.002901,0.434355,0
63.9,1.220579,6.40439,6.044988,0.236619,-0.251646,-0.016463,0
64.0,-0.29348,6.630033,7.000801,0.004429,-0.354118,-0.134237,0
64.1,0.370648,7.289375,7.664091,0.196851,-0.097952,0.37504,0
64.2,1.288176,6.872545,7.932207,-0.192758,-0.176937,0.784198,0
64.3,0.813081,7.080003,3.607061,-0.001008,0.178281,0.254884,0
64.4,1.507927,5.946314,6.099156,0.191315,0.08388,0.227432,0
64.5,1.324547,6.886065,7.598647,0.054489,0.093951,0.092027,0
64.6,1.502693,7.38772,8.217431,-0.069272,-0.011393,-0.064477,0
64.7,0.093679,6.735197,4.822136,0.07816,0.186894,-0.100976,0
64.8,0.871825,7.917013,7.515258,-0.015943,0.255342,0.166155,0
64.9,1.649851,7.046743,5.538308,0.134207,0.259831,-0.004429,0
65.0,1.406262,6.807341,7.268438,-0.124311,-0.133871,-0.358028,0
65.1,0.456431,7.270233,7.041838,-0.075533,-0.135948,-0.275714,0
65.2,0.960599,6.656833,7.153343,-0.013958,-0.006353,0.068081,0
65.3,1.008335,6.53097,6.867042,-0.013775,-0.037018,0.016616,0
65.4,0.854716,6.961559,7.211728,-0.035736,-0.150242,-0.126968,0
65.5,0.562912,7.012466,7.265656,0.095562,-0.01741,0.102587,0
65.6,0.598565,6.670233,6.002156,0.095661,0.103236,0.345505,0
65.7,1.069352,6.886065,7.106803,0.051924,0.109925,0.276691,0
65.8,1.276092,6.641638,6.802795,0.082039,0.24908,0.28842,0
65.9,1.964149,6.527381,6.647261,-0.107176,0.028344,-0.031337,0
66.0,1.471586,6.388956,7.199884,-0.153785,-0.126327,-0.279959,0
66.1,1.191865,7.005108,7.009056,0.004612,-0.076327,-0.143034,0
66.2,1.472184,6.529056,7.348837,-0.027764,-0.045968,-0.112949,0
66.3,0.957727,6.654918,6.639006,-0.017196,-0.154457,-0.207022,0
66.4,0.791426,6.486942,6.832466,0.099296,-0.008583,0.041661,0
66.5,0.758644,6.912506,7.096035,0.069486,0.078221,0.299751,0
66.6,1.326222,6.827321,6.900063,0.001833,0.145508,0.384753,0
66.7,1.890779,6.66431,7.519296,-0.123547,0.001336,0.094608,0
66.8,1.366541,6.597371,7.309595,-0.077305,-0.101679,-0.068203,0
66.9,0.468993,6.876494,6.085905,0.062217,-0.009896,0.085674,0
67.0,0.504766,7.160642,6.722516,0.218781,0.190345,0.424917,0
67.1,1.216631,6.601917,7.893204,0.255861,0.358761,0.654511,0
67.2,1.966541,6.067121,5.01093,0.256166,0.422566,0.369359,0
67.3,3.114259,6.601678,10.730135,0.032926,-0.072815,-0.358883,0
67.4,0.865843,7.350871,5.563073,-0.047739,-0.071563,-0.650266,0
67.5,0.614836,6.689256,7.232306,0.031337,-0.08207,-0.051404,0
67.6,-0.618186,7.178109,6.890013,0.311572,0.400239,0.654908,0
67.7,2.447259,6.963593,7.99789,0.195232,0.492723,0.61621,0
67.8,2.345684,5.872705,6.49759,0.029352,0.382493,0.132894,0
67.9,2.626871,6.17079,6.075676,-0.006147,0.247782,-0.269391,0
68.0,1.216391,7.363553,6.34768,-0.193644,-0.068447,-0.62354,0
68.1,0.983331,7.139345,7.779306,-0.238879,-0.20299,-0.643607,0
68.2,1.957688,5.832864,7.618508,-0.248408,-0.285518,-0.546083,0
68.3,0.25005,6.899943,6.230193,-0.049847,-0.30247,-0.631817,0
68.4,1.022214,7.109914,7.088019,-0.102717,-0.387166,-0.549778,0
68.5,0.231865,6.424729,7.174161,-0.089706,-0.408485,-0.42339,0
68.6,0.459183,6.877331,7.370492,0.070891,-0.279807,-0.16307,0
68.7,-0.022971,6.483831,7.376355,0.073976,-0.102778,0.205648,0
68.8,0.198006,6.608737,6.611967,0.129992,0.081917,0.461081,0
68.9,1.702135,6.336075,7.226444,0.104488,0.267528,0.539455,0
69.0,2.52024,6.382106,6.928568,-0.127709,-0.120341,-0.29688,0
69.1,0.290249,6.599285,6.840841,-0.221316,-0.479865,-0.848247,0
69.2,0.235454,6.847541,7.277531,-0.133993,-0.456346,-0.301034,0
69.3,-0.134716,7.015517,7.338787,0.088514,-0.009957,0.467892,0
69.4,0.724666,6.635656,7.619465,0.23955,0.297003,0.840153,0
69.5,1.845225,6.488617,6.78425,0.217834,0.361052,0.459157,0
69.6,1.480798,6.657072,6.971968,-0.005009,-0.056688,-0.213405,0
69.7,0.712104,7.05787,6.780063,0.112185,-0.025259,-0.196821,0
69.8,1.347398,7.039804,7.106922,-0.079901,-0.086132,-0.05846,0
69.9,1.353141,7.142814,7.446943,0.039676,0.045693,-0.034789,0
70.0,0.661735,6.975676,6.543413,0.099693,0.151678,0.107848,0
70.1,1.774876,6.330571,6.456553,-0.01689,0.074434,-0.024221,0
70.2,1.264606,6.616604,7.032057,-0.058032,-0.127747,-0.434936,0
70.3,1.04351,6.849575,6.763553,-0.069272,-0.212581,-0.363434,0
70.4,1.415594,6.847062,7.595417,-0.122295,-0.37614,-0.356348,0
70.5,-0.345404,6.683034,6.736992,-0.015485,-0.134726,0.050122,0
70.6,0.748834,6.797411,7.885427,0.226692,0.26258,0.607566,0
70.7,1.805744,6.345168,6.495915,0.064569,0.337992,0.463982,0
70.8,3.005983,6.41109,7.167102,-0.072082,0.004887,-0.339061,0
70.9,0.359402,6.836534,7.063971,-0.14957,-0.236924,-0.715231,0
71.0,0.918246,7.087062,6.958328,-0.161299,-0.350422,-0.451215,0
71.1,-0.029671,7.098069,6.863931,0.012889,-0.041478,0.058277,0
71.2,0.844667,6.540302,6.110551,0.103756,0.211756,0.389487,0
71.3,1.751905,7.085267,6.96108,-0.067959,0.012156,-0.022785,0
71.4,1.30334,6.131907,7.183104,-0.051465,-0.077465,-0.3036,0
71.5,0.733161,6.809854,6.868478,-0.10061,-0.10907,-0.279959,0
71.6,1.228834,6.535756,7.600801,-0.178556,-0.252684,-0.381516,0
71.7,0.65994,6.995656,6.556932,-0.088606,-0.354088,-0.474581,0
71.8,0.030748,7.148917,7.572805,0.002535,-0.255769,-0.148073,0
71.9,0.308196,6.685427,6.256992,0.120798,-0.005803,0.281395,0
72.0,1.062054,6.752905,7.109674,0.023702,0.02755,0.258426,0
72.1,1.333998,6.669993,7.367142,-0.053542,-0.012645,0.072998,0
72.2,1.272982,6.661618,7.275975,-0.021166,-0.141537,-0.208946,0
72.3,0.873739,6.945287,7.121638,-0.025809,-0.184023,-0.221866,0
72.4,0.513021,6.578827,6.749315,0.012309,-0.158886,-0.040958,0
72.5,1.032264,6.916214,6.967062,0.099174,-0.050366,0.066615,0
72.6,1.159622,6.650103,7.478169,0.006948,-0.048373,0.13607,0
72.7,0.878764,6.87087,6.730412,0.025992,-0.046212,0.060262,0
72.8,0.618664,6.65456,7.250851,0.07477,-0.007666,0.139002,0
72.9,0.541017,6.945287,6.723951,0.105527,0.129473,0.380233,0
73.0,1.060619,6.962755,7.141379,0.198317,0.260595,0.41438,0
73.1,1.574357,6.808777,7.02796,0.043433,0.189582,0.25583,0
73.2,1.516092,6.722875,6.593303,0.058734,0.184054,0.077916,0
73.3,1.724388,6.583493,6.881399,-0.044532,0.071349,-0.092638,0
73.4,1.400041,6.774799,6.869913,-0.097402,-0.001619,-0.202349,0
73.5,0.767976,7.27454,6.787959,-0.030543,-0.038973,-0.199967,0
73.6,1.017667,6.775876,6.794061,-0.051496,0.015333,-0.031918,0
73.7,1.192972,6.82762,7.064211,0.021953,0.128167,0.080825,0
73.8,1.282752,6.8678,6.682855,-0.015857,0.024511,-0.10764,0
73.9,1.697408,6.5179,7.205088,-0.078572,-0.130801,-0.321124,0
74.0,0.95665,6.468159,6.70098,-0.058246,-0.216613,-0.323544,0
74.1,0.519123,7.198926,7.190911,-0.039217,-0.158641,-0.025473,0
74.2,0.779462,6.713064,7.37791,0.017135,0.02529,0.236099,0
74.3,1.627837,6.613642,7.04435,0.011607,0.017807,0.154335,0
74.4,1.13025,6.971609,7.323353,0.103236,0.022785,-0.053573,0
74.5,0.557169,6.712107,6.506564,0.056016,-0.010537,0.038393,0
74.6,1.174278,6.73089,6.49771,0.115973,0.107146,0.221194,0
74.7,0.959761,7.041479,7.13767,0.047067,0.164353,0.200272,0
74.8,1.034537,6.670113,7.253722,0.04612,0.154091,0.116248,0
74.9,1.488784,6.054888,7.288688,-0.026458,0.08323,0.094722,0
75.0,1.509991,6.913583,7.218667,-0.067256,0.07874,0.019242,0
75.1,1.492762,6.502615,6.440402,-0.020128,0.006078,-0.189551,0
75.2,1.701177,6.755297,7.716853,-0.16982,-0.231915,-0.374216,0
75.3,0.545683,6.963353,6.198368,-0.038973,-0.181213,-0.350117,0
75.4,0.716291,6.78449,7.528418,0.020372,-0.071685,-0.00843,0
75.5,0.954377,6.619983,6.848737,0.079076,0.035888,0.17935,0
75.6,1.421935,6.748119,7.111349,-0.026909,-0.013745,0.02025,0
75.7,0.923749,6.490412,7.425168,-0.060201,-0.084605,-0.093493,0
75.8,0.67681,6.657192,6.852446,0.083963,0.003665,0.035247,0
75.9,1.353141,6.514699,7.077132,0.040012,0.06298,0.177212,0
76.0,1.467758,6.759245,6.963353,0.0208,0.040745,0.053725,0
76.1,1.269242,6.558278,7.342974,-0.119577,-0.07254,-0.114575,0
76.2,1.204547,6.580143,7.334719,0.005009,-0.010843,-0.017746,0
76.3,0.921955,6.923513,6.393861,0.023732,0.061147,0.068111,0
76.4,1.231107,6.850173,7.409615,0.00956,0.03207,-0.054367,0
76.5,1.153101,6.385965,7.191269,-0.002963,0.040439,-0.054703,0
76.6,0.868355,6.730532,6.948996,0.037232,0.052229,-0.016707,0
76.7,1.37037,6.262376,7.614799,-0.047128,0.019273,-0.006903,0
76.8,1.258864,6.607181,6.743094,0.01689,0.001649,-0.163529,0
76.9,1.668276,6.819545,7.219864,-0.090652,-0.12593,-0.322995,0
77.0,0.719641,6.750392,7.194739,-0.097494,-0.205128,-0.361387,0
77.1,1.002114,6.727301,7.156813,0.021014,-0.151708,-0.226387,0
77.2,0.939183,6.474978,6.678667,-0.049633,-0.149776,-0.135536,0
77.3,0.889771,6.71426,7.429236,-0.016005,-0.185825,-0.206014,0
77.4,0.726939,6.747042,6.929614,0.025931,-0.199325,-0.191659,0
77.5,0.427478,6.57428,7.477331,-0.009529,-0.137903,0.072204,0
77.6,0.303888,6.703971,6.838807,0.145294,0.017471,0.284419,0
77.7,1.387837,6.484191,7.355656,0.092454,0.109772,0.356653,0
77.8,1.325145,6.901977,6.971728,0.051068,0.108062,0.158275,0
77.9,0.840239,6.885586,6.591628,-0.008063,0.030299,0.02865,0
78.0,1.383769,6.77444,7.115895,-0.019303,0.048533,0.044379,0
78.1,1.299901,6.680163,6.627281,-0.040897,-0.000825,-0.107359,0
78.2,1.158246,7.151788,6.715457,-0.032834,-0.052412,-0.205556,0
78.3,1.404706,6.682914,7.338667,-0.093249,-0.074862,-0.191201,0
78.4,0.9734,6.670711,6.747401,-0.117805,-0.174372,-0.300301,0
78.5,0.947558,6.926922,7.19776,-0.110986,-0.2298,-0.317535,0
78.6,0.537428,6.96431,7.098189,-0.033567,-0.177578,-0.186314,0
78.7,0.328415,6.985248,6.872426,0.061942,-0.105038,0.077274,0
78.8,0.744646,6.756494,7.089814,0.106352,0.041997,0.204365,0
78.9,1.064926,6.707561,6.595337,0.153694,0.070372,0.159894,0
79.0,1.301935,6.723951,7.093523,-0.02303,0.05342,0.00336,0
79.1,1.19701,6.699903,7.233144,0.112827,-0.026054,-0.091935,0
79.2,0.819063,6.653363,7.096394,0.042364,-0.039981,0.04273,0
79.3,0.997089,6.686025,6.719166,0.117194,0.082955,0.262489,0
79.4,1.635614,6.977232,7.071509,0.050671,0.140896,0.193614,0
79.5,1.384128,6.437889,6.707201,0.022296,0.031704,-0.077091,0
79.6,0.786282,7.230871,6.998288,0.055864,-0.014814,-0.032467,0
79.7,1.461297,6.758169,7.420263,0.026053,0.07364,0.110414,0
79.8,0.925574,7.060621,6.790532,0.06773,0.095448,0.081971,0
79.9,1.083709,6.744051,6.820741,0.011637,0.056994,0.096425,0
80.0,1.482593,6.536115,7.016833,0.008308,0.107451,0.025168,0
80.1,1.348355,6.859385,7.085746,-0.032925,0.008094,-0.112979,0
80.2,1.134048,6.812366,7.04447,-0.142942,-0.088003,-0.148936,0
80.3,1.268894,6.863014,6.340681,-0.087201,-0.11609,-0.195833,0
80.4,0.938465,6.581937,7.158727,-0.091752,-0.125044,-0.207969,0
80.5,0.650489,6.898508,7.443593,-0.047037,-0.103328,0.025107,0
80.6,0.982134,6.460382,6.791788,0.031215,-0.06521,0.110719,0
80.7,1.207418,6.721798,6.299345,0.139705,-0.077122,0.051282,0
80.8,0.80016,6.588637,7.837092,-0.060231,-0.03543,0.136864,0
80.9,1.180379,6.97101,7.067202,0.200883,0.155709,0.348651,0
81.0,0.72024,6.853492,6.406035,0.086666,0.234152,0.46105,0
81.1,1.938545,6.814639,7.514899,-0.003085,0.180694,0.263038,0
81.2,1.535714,6.506803,6.877212,0.00559,0.196943,0.097525,0
81.3,0.989791,7.316893,6.24766,-0.008949,0.169393,-0.034728,0
81.4,1.544807,6.686982,7.483912,-0.09954,0.101587,-0.082589,0
81.5,1.514059,6.734121,6.232107,-0.039065,0.130847,-0.107299,0
81.6,1.153939,6.809495,6.959525,-0.096456,0.070708,-0.206625,0
81.7,1.691487,6.792386,7.036334,-0.159375,-0.058276,-0.360929,0
81.8,1.419183,6.865008,7.175836,-0.177426,-0.281578,-0.631054,0
81.9,0.1535,6.717969,6.89456,-0.032284,-0.148654,-0.267559,0
82.0,1.173321,6.780302,6.97436,0.017349,-0.105496,-0.117805,0
82.1,1.159472,6.487092,7.05434,-0.067348,-0.212428,-0.242895,0
82.2,0.972443,6.732446,7.504251,-0.050671,-0.260595,-0.23897,0
82.3,0.279721,6.659584,7.304091,0.072785,-0.160169,-0.010079,0
82.4,0.991586,6.382735,6.719166,0.099937,-0.046273,0.133443,0
82.5,1.343211,6.813562,7.211011,0.012859,-0.100609,0.026786,0
82.6,0.605265,6.756494,6.942177,0.058612,-0.073762,0.045723,0
82.7,0.814038,6.77097,7.189594,0.074434,0.017043,0.202807,0
82.8,1.292244,6.779464,7.335437,0.083139,0.018356,0.169118,0
82.9,1.100938,6.734121,6.782456,-0.013317,-0.05901,0.066493,0
83.0,0.840598,6.743214,7.022815,0.003207,-0.020311,0.041447,0
83.1,0.612682,6.580502,7.1811,0.040928,0.080878,0.251218,0
83.2,1.584647,6.539136,6.777371,0.019052,0.038141,0.123471,0
83.3,1.072822,6.851608,7.055477,0.111575,0.12761,0.149356,0
83.4,1.289731,6.78772,7.079046,0.002505,0.127915,0.184939,0
83.5,2.005185,6.765466,6.792147,-0.023977,0.063988,-0.104122,0
83.6,1.280878,6.812007,6.820741,-0.100762,-0.087445,-0.210473,0
83.7,1.198924,6.571768,7.433662,-0.062278,-0.052687,-0.087293,0
83.8,1.031067,6.675018,6.33105,-0.028833,-0.047892,-0.010202,0
83.9,1.167458,6.81117,7.133004,-0.008613,0.033292,0.103511,0
84.0,0.721197,6.967182,6.939784,0.022541,0.070402,0.042608,0
84.1,1.578426,6.737231,6.828996,-0.053726,0.012309,0.026481,0
84.2,1.242593,6.793941,7.230511,-0.059773,0.012706,-0.018845,0
84.3,1.099024,6.762715,7.23458,-0.028894,0.079199,0.066706,0
84.4,1.385684,6.49436,6.876853,-0.014752,0.018234,-0.073823,0
84.5,1.14347,6.786045,7.101,-0.025351,-0.04005,-0.240375,0
84.6,0.945883,6.616035,7.490612,-0.026817,-0.078252,-0.140957,0
84.7,0.89695,6.915736,6.581578,0.057482,-0.021991,-0.029077,0
84.8,1.334597,6.63446,6.986803,0.05565,-0.007788,-0.034361,0
84.9,1.086222,6.662097,6.909634,-0.061148,-0.097066,-0.112796,0
85.0,1.152982,6.801838,6.776474,0.002901,-0.100182,-0.107299,0
85.1,1.118644,6.691768,7.868558,0.02022,-0.08433,-0.043433,0
85.2,0.954856,6.596533,7.15119,0.074739,-0.080573,0.060231,0
85.3,1.117688,6.858069,6.72455,0.094226,0.026023,0.228036,0
85.4,1.092922,6.788318,7.338428,0.068905,0.089858,0.169637,0
85.5,1.37025,6.707441,6.477132,-0.000214,0.028711,0.062553,0
85.6,1.355384,6.577271,7.441529,-0.08995,-0.038026,-0.003398,0
85.7,1.051646,6.774918,7.131329,0.041997,0.080115,0.063622,0
85.8,0.786521,6.799924,6.519963,0.111788,0.20354,0.149723,0
85.9,1.753102,6.382735,7.777152,0.010935,0.087384,0.024801,0
86.0,1.012403,6.79789,6.944569,-0.035369,-0.04218,-0.106352,0
86.1,1.195095,6.676573,6.762596,-0.065393,-0.056505,-0.028069,0
86.2,1.078445,6.676454,7.225008,0.055253,-0.017807,-0.015882,0
86.3,1.280758,7.099026,7.047461,0.065851,0.002627,0.004337,0
86.4,1.318924,6.383931,7.34764,0.060262,0.036041,0.070738,0
86.5,1.357329,6.897192,7.115656,0.061545,0.055558,0.078191,0
86.6,0.915613,6.325307,5.868996,0.089522,0.096486,0.109528,0
86.7,1.419183,6.650252,7.306125,-0.112002,0.057421,0.09056,0
86.8,2.035694,6.796573,8.315298,-0.009499,0.082314,0.033017,0
86.9,0.382702,7.017401,5.309673,0.124502,0.075976,-0.050206,0
87.0,1.167219,7.045546,6.96108,-0.026909,0.077305,0.032956,0
87.1,1.836372,5.975716,7.371569,-0.05846,0.057482,0.005651,0
87.2,1.072703,6.819784,7.17452,0.034972,0.113621,-0.055497,0
87.3,1.020419,6.603114,7.051409,-0.023365,0.062339,0.014936,0
87.4,1.128934,6.83773,7.152267,0.003207,0.113621,0.017563,0
87.5,2.061417,6.393862,7.002954,-0.011698,-0.006261,-0.22825,0
87.6,1.392264,6.633024,6.795138,-0.080573,-0.052443,-0.307234,0
87.7,0.890848,6.903293,7.500183,-0.070463,-0.132436,-0.325438,0
87.8,1.052722,6.340382,7.246783,-0.09728,-0.209985,-0.236313,0
87.9,1.202244,6.439983,7.232157,0.006414,-0.138895,-0.179327,0
88.0,1.167578,6.972805,7.160402,0.061606,-0.142026,-0.18329,0
88.1,0.95354,6.243473,7.196773,-0.024282,-0.195324,-0.138788,0
88.2,0.822294,6.666763,7.435697,0.02584,-0.170431,-0.015791,0
88.3,0.630629,6.706962,6.59761,0.054733,-0.067745,0.08265,0
88.4,1.219502,6.661618,7.280522,0.027672,-0.094959,0.054092,0
88.5,0.994338,6.705885,7.080721,0.011668,-0.157786,0.011118,0
88.6,1.25001,6.838687,7.368937,-0.021869,-0.198042,0.064966,0
88.7,0.479283,6.614599,6.758887,0.134879,0.027855,0.294376,0
88.8,1.47709,6.840601,7.137072,0.134054,0.102014,0.353813,0
88.9,1.540738,6.486942,7.389396,0.096486,0.142331,0.304241,0
89.0,0.867757,6.84096,6.499146,0.100793,0.216674,0.313007,0
89.1,1.979702,7.061219,6.927461,0.054275,0.233747,0.255403,0
89.2,1.981496,6.324948,6.848737,-0.074862,0.097952,-0.148868,0
89.3,1.211815,7.109524,6.114709,-0.129656,-0.070135,-0.346246,0
89.4,1.092204,7.049734,7.801319,-0.154915,-0.127152,-0.126907,0
89.5,0.474736,6.120601,6.673702,-0.028466,-0.009194,0.102228,0
89.6,1.2268,6.796215,7.008817,0.030452,0.11976,0.235763,0
89.7,1.795095,6.428916,7.025447,0.012034,0.094379,0.018234,0
89.8,1.677608,6.3344,7.199285,-0.060048,-0.035736,-0.110108,0
89.9,0.664606,7.289973,7.087062,-0.027123,-0.008369,-0.026909,0
90.0,0.942054,6.341818,7.6544,0.059407,0.090591,0.099571,0
90.1,1.375514,6.31442,6.706962,0.013622,0.044349,0.071807,0
90.2,1.588475,7.388558,7.029036,0.039462,0.118722,0.017074,0
90.3,1.758844,6.462416,6.924829,-0.108764,-0.028436,-0.108612,0
90.4,1.103929,6.896474,6.73759,0.099724,-0.06127,-0.313129,0
90.5,0.752842,7.19462,7.425976,-0.035659,-0.143935,-0.197882,0
90.6,1.005943,6.336075,6.577271,0.08656,-0.051068,0.004429,0
90.7,0.490648,6.88439,7.487381,0.07254,0.042211,0.214963,0
90.8,1.613959,6.903892,7.240562,-0.018051,0.051007,0.212673,0
90.9,1.387,6.607541,6.3143,0.035522,0.01744,0.030268,0
91.0,1.030469,6.822655,6.927581,-0.061759,-0.017623,0.007697,0
91.1,1.359123,7.363792,7.175836,0.052321,0.096181,0.032712,0
91.2,1.422533,6.555497,6.642954,-0.061972,0.013195,-0.103206,0
91.3,1.185883,6.962157,7.265447,-0.115179,-0.03488,-0.167316,0
91.4,0.314297,6.563513,6.842037,6.1e-05,0.057238,-0.027153,0
91.5,1.451127,6.367899,7.314619,0.020128,0.093676,0.070524,0
91.6,1.924188,6.595935,7.080602,-0.09331,-0.102686,-0.272995,0
91.7,1.375574,6.783204,6.89447,-0.185703,-0.266146,-0.441999,0
91.8,0.752304,6.652765,7.060621,0.042761,-0.1237,-0.284541,0
91.9,1.050449,6.38106,7.604869,-0.058704,-0.031765,0.003573,0
92.0,1.097229,6.535875,6.38764,0.013897,-0.046426,-0.006506,0
92.1,1.778346,6.478926,7.073662,-0.098746,-0.218506,-0.282434,0
92.2,0.716531,6.803034,7.362954,-0.099265,-0.186405,-0.283808,0
92.3,1.026521,6.513024,7.543972,-0.011576,-0.174799,-0.246759,0
92.4,0.953181,6.54425,7.757531,-0.038698,-0.254242,-0.196179,0
92.5,0.335235,6.530492,6.95091,0.060262,-0.184481,-0.036529,0
92.6,0.552293,6.886095,7.218248,0.132863,-0.095524,0.202616,0
92.7,0.842174,6.233303,7.642376,0.160377,0.059967,0.350026,0
92.8,0.95366,6.517092,7.215317,0.117164,0.143461,0.379744,0
92.9,0.771087,6.780811,7.098159,0.12851,0.149051,0.396719,0
93.0,1.318565,6.309514,6.742496,0.165606,0.234633,0.31936,0
93.1,1.884348,6.673343,7.158368,0.027581,0.135276,0.095906,0
93.2,1.369173,6.569614,7.155975,-0.017074,-0.04444,-0.173944,0
93.3,1.259582,6.782815,7.109914,0.012125,0.027122,0.046884,0
93.4,0.869432,6.725148,6.666643,0.118935,0.174616,0.27547,0
93.5,1.357209,6.856992,6.695237,-0.01912,0.100365,0.117042,0
93.6,1.526621,6.728737,7.365826,-0.092515,0.007575,-0.042577,0
93.7,1.388675,6.60754,7.270951,0.018051,-0.023091,-0.086529,0
93.8,1.032055,6.76451,6.712167,0.004811,-0.019548,0.048946,0
93.9,1.100698,7.06092,7.386743,0.053399,0.077758,0.144419,0
94.0,1.540978,6.649953,6.817152,0.051351,0.158405,0.259274,0
94.1,1.448136,6.738428,6.505127,-0.031612,0.126144,0.073976,0
94.2,1.355773,6.694519,6.273742,-0.000367,-0.004245,-0.143309,0
94.3,0.880439,7.158249,7.237092,-0.148593,-0.038179,-0.051557,0
94.4,1.374198,6.625008,7.040522,0.047586,0.176326,0.098197,0
94.5,1.069352,6.842037,6.769535,-0.046151,0.016402,-0.106321,0
94.6,0.921835,6.718926,7.248936,-0.101587,-0.011179,-0.041508,0
94.7,1.318565,6.21763,7.552227,0.021991,0.088331,0.047037,0
94.8,1.548276,6.70445,6.765826,-0.123517,-0.124494,-0.206045,0
94.9,1.094238,6.963114,7.345248,-0.075808,-0.220645,-0.349415,0
95.0,-0.146441,6.418507,7.608817,0.078985,0.100457,0.366946,0
95.1,1.805146,6.334998,6.832705,0.106962,0.283563,0.444618,0
95.2,2.444418,6.996614,6.759425,-0.086284,0.116828,-0.038828,0
95.3,1.758725,6.583851,6.896115,-0.180052,-0.040653,-0.401705,0
95.4,1.571008,6.112944,7.605347,-0.276722,-0.321132,-0.618989,0
95.5,0.971007,6.847062,7.174161,-0.164933,-0.312091,-0.532216,0
95.6,0.491246,6.509076,7.404948,0.035522,-0.112368,-0.099357,0
95.7,0.693201,6.51434,7.413922,0.059681,0.007208,0.066157,0
95.8,1.108236,6.517451,6.430232,0.103939,-0.15971,-0.24456,0
95.9,1.173799,6.829714,7.498388,0.017349,-0.178372,-0.254822,0
96.0,0.655753,6.456792,7.216035,0.099999,-0.100518,-0.00223,0
96.1,0.882353,6.339305,7.257551,0.062003,-0.022632,0.086437,0
96.2,0.842872,6.730173,7.216992,0.060079,-0.057543,0.049022,0
96.3,1.348714,6.301498,7.811729,0.059865,0.128557,0.202654,0
96.4,0.826002,6.805666,7.452446,0.045693,0.062247,0.200211,0
96.5,0.886541,6.849754,5.356334,0.397177,0.144852,0.245148,0
96.6,1.582015,6.353662,7.879804,-0.222966,0.142209,0.205648,0
96.7,1.901097,6.525467,7.226085,-0.102106,-0.020647,-0.280753,0
96.8,1.564906,6.634101,7.489535,-0.209099,-0.326996,-0.605337,0
96.9,0.861416,6.294081,7.142815,-0.138177,-0.274553,-0.365175,0
97.0,0.412164,6.833542,7.239246,0.036072,-0.127487,-0.051435,0
97.1,0.341336,6.740462,6.830192,0.148624,0.053664,0.257021,0
97.2,1.020659,6.438966,7.052486,0.096456,0.12929,0.30192,0
97.3,0.747877,6.624051,7.73121,0.055314,0.157786,0.204395,0
97.4,1.025205,6.469475,7.089216,0.1091,0.215666,0.28787,0
97.5,2.756382,6.452844,6.77423,-0.086972,0.08094,-0.04299,0
97.6,1.609971,6.70439,7.015357,-0.156814,-0.165544,-0.527609,0
97.7,0.532852,6.657132,7.039834,-0.150082,-0.170393,-0.362854,0
97.8,1.381975,6.452964,7.22788,-0.096792,-0.077549,-0.237138,0
97.9,1.255514,6.276254,7.08455,-0.132069,-0.098807,-0.31319,0
98.0,1.347877,6.318248,7.281838,-0.206014,-0.320796,-0.640767,1
98.1,0.812124,6.572486,7.287222,-0.191353,-0.453964,-0.76129,1
98.2,0.645703,6.260461,7.250133,-0.128007,-0.362304,-0.449749,1
98.3,1.021855,6.416713,7.618628,-0.13717,-0.419481,-0.496389,1
98.4,0.388116,6.389674,5.172804,0.121715,-0.409218,-0.417007,1
98.5,0.257707,6.395776,9.993385,-0.050427,-0.07535,0.13158,1
98.6,1.116371,6.089136,7.661699,0.049205,-0.028344,0.117775,1
98.7,1.047937,6.226962,6.856035,-0.042455,-0.294773,-0.466701,1
98.8,0.576521,6.787092,8.467452,0.047342,-0.216552,-0.336854,1
98.9,0.032901,5.991748,6.656354,0.217498,0.056597,0.168599,1
99.0,2.536392,6.786165,7.460462,0.055069,-0.134482,-0.357845,1
99.1,0.971247,6.286424,7.453882,-0.14902,-0.380325,-0.819017,1
99.2,0.435374,6.735437,7.453882,-0.066981,-0.474031,-0.708603,1
99.3,0.463011,6.400681,7.665168,-0.006903,-0.338847,-0.348498,1
99.4,0.668076,6.438248,7.499106,0.077366,-0.315726,-0.323819,1
99.5,0.38333,6.388956,7.60128,0.029627,-0.303264,-0.170065,1
99.6,0.001555,6.325905,7.549594,0.203723,0.010873,0.275286,1
99.7,1.467997,6.317052,6.976873,0.1299,0.076999,0.222752,1
99.8,1.27346,6.435975,7.305886,-0.032529,-0.12651,-0.333227,1
99.9,0.636132,6.69117,6.946125,0.001955,-0.157481,-0.311449,1
100.0,1.314258,6.431309,7.323712,-0.039401,-0.12086,-0.236832,1
100.1,1.527518,6.502795,7.675427,-0.100411,-0.203761,-0.471282,1
100.2,1.277648,6.47773,7.132645,-0.199356,-0.394924,-0.699074,1
100.3,0.287498,6.603114,7.636335,-0.138575,-0.468136,-0.752341,1
100.4,-0.065444,6.428677,8.047182,0.117255,-0.239153,-0.295414,1
100.5,0.861057,5.919843,6.956055,0.096242,-0.075045,0.023793,1
100.6,3.09715,6.142495,11.806426,-0.045234,-0.233167,-0.432279,1
100.7,-0.95677,6.833064,4.149752,0.162857,-0.346757,-0.784381,1
100.8,0.991825,6.813084,7.903493,0.050519,-0.246392,-0.434539,1
100.9,0.468395,6.583851,6.935836,0.094867,-0.235152,-0.512119,1
101.0,-0.386321,9.093444,6.43442,0.133718,-0.285335,-0.649105,1
101.1,3.110789,4.439523,8.774002,-0.268994,-0.505033,-0.618653,1
101.2,0.831267,6.41767,7.740781,-0.126419,-0.729617,-1.302455,1
101.3,0.011515,6.633353,7.425378,0.09896,-0.731396,-1.144875,1
101.4,-0.468395,6.283452,8.876674,0.195146,-0.483525,-0.560774,1
101.5,0.047139,6.051329,7.305766,0.289,-0.375896,-0.27605,1
101.6,0.013459,6.584599,7.704441,0.237664,-0.393054,-0.364839,1
101.7,-1.235534,6.846943,7.069834,0.335242,-0.342481,-0.273026,1
101.8,-0.356411,7.166743,6.750392,0.359647,-0.150029,0.143309,1
101.9,0.431187,6.814879,6.720841,0.263435,-0.023641,0.255372,1
102.0,0.364427,7.295477,6.488857,0.067226,-0.209832,-0.158244,1
102.1,-0.531924,7.506285,6.438846,0.016463,-0.314473,-0.300118,1
102.2,-1.104886,7.235298,7.002237,0.121562,-0.183809,0.039645,1
102.3,0.054437,7.34453,6.796215,0.223821,-0.020831,0.305738,1
102.4,0.292642,7.325028,6.574998,0.170492,0.009438,0.213955,1
102.5,-0.032602,7.45768,4.991278,0.239574,0.199294,0.422489,1
102.6,1.78349,7.442516,6.383931,0.00956,0.130358,0.154457,1
102.7,0.829353,7.465726,5.551947,-0.13323,-0.070769,-0.474031,1
102.8,1.061337,7.5411,7.409615,-0.311174,-0.347093,-0.725585,1
102.9,-0.379382,7.220103,5.722435,-0.107512,-0.355554,-0.631237,1
103.0,0.719402,7.80802,6.547361,-0.149662,-0.53246,-0.685146,0
103.1,-0.545922,7.100103,7.163513,-0.064385,-0.583223,-0.664926,0
103.2,-1.017548,7.032267,6.658747,0.177151,-0.38399,-0.039095,0
103.3,0.212602,6.696075,7.228598,0.230296,-0.086926,0.431759,0
103.4,-0.971486,7.110153,6.312864,0.233564,-0.066981,0.429377,0
103.5,0.220977,7.364749,6.44758,0.201921,0.121562,0.731724,0
103.6,1.093041,7.278368,6.224808,0.251829,0.342146,0.818223,0
103.7,1.925744,7.486185,5.940182,0.114415,0.285946,0.408669,0
103.8,1.45678,7.41805,6.344569,0.015692,0.192842,0.086514,0
103.9,1.232543,7.708,6.139983,-0.053817,0.049602,-0.16814,0
104.0,0.386241,7.859126,5.543073,-0.014024,0.038382,-0.092673,0
104.1,0.283848,7.299754,6.987192,0.044593,0.235717,0.253814,0
104.2,1.1001,7.306364,6.634938,0.040989,0.162643,0.147738,0
104.3,1.893321,7.460701,5.505526,-0.029902,0.128526,-0.062033,0
104.4,1.700699,7.089575,6.608378,-0.131641,-0.007727,-0.31768,0
104.5,0.598086,7.438089,6.51434,-0.184756,-0.183443,-0.481972,0
104.6,-0.012562,7.426364,6.81093,-0.055864,-0.193553,-0.297277,0
104.7,0.245025,7.440602,6.466723,0.051343,-0.066126,0.027183,0
104.8,1.045065,7.108717,6.238208,0.112277,-0.051526,-0.026328,0
104.9,0.789512,7.245706,6.010292,0.041478,-0.101923,-0.06521,0
105.0,1.253719,7.175238,7.137191,-0.030207,-0.067745,0.022724,0
105.1,0.311516,6.575178,6.81446,0.015615,-0.080634,-0.019166,0
105.2,0.289053,7.201439,7.171768,0.077183,-0.049633,0.112094,0
105.3,0.116531,7.238169,6.145726,0.140041,0.183198,0.558789,0
105.4,1.299781,7.21424,6.359764,0.149326,0.295414,0.479101,0
105.5,1.979343,7.412845,6.321359,-0.051557,0.125044,0.084941,0
105.6,0.694995,7.718289,6.04762,-0.053298,0.024923,-0.110628,0
105.7,0.90999,7.373842,6.353064,-0.022938,0.033262,-0.059345,0
105.8,0.567458,7.496713,6.122396,0.043249,0.116431,0.081856,0
105.9,0.51338,7.402317,6.609814,0.101251,0.162734,0.148043,0
106.0,1.583809,7.296673,6.589355,-0.024007,0.095723,0.054306,0
106.1,0.919442,7.425886,5.859783,-0.012126,0.091141,-0.020067,0
106.2,0.807937,7.655477,6.020102,-0.017715,0.153816,0.013134,0
106.3,1.401476,7.24762,6.416354,-0.082283,0.108703,-0.046548,0
106.4,1.532005,6.951,6.403941,-0.211932,-0.117706,-0.441923,0
106.5,0.739621,7.332326,6.17097,-0.222904,-0.32611,-0.626442,0
106.6,0.625484,7.387242,6.755776,-0.117378,-0.270919,-0.375987,0
106.7,0.408096,7.093882,6.813562,-0.047159,-0.239459,-0.220186,0
106.8,0.558724,7.148916,6.590192,-0.003054,-0.166217,-0.054031,0
106.9,-0.123111,6.666643,7.256354,0.088178,-0.02306,0.197096,0
107.0,0.477368,7.289495,6.811888,0.16472,0.123975,0.420061,0
107.1,1.277887,7.116015,6.185566,0.138422,0.178372,0.318535,0
107.2,1.464767,7.426005,6.515058,-0.047434,-0.003726,-0.075595,0
107.3,0.87338,7.510592,6.268597,-0.018204,-0.014661,-0.165544,0
107.4,0.889891,7.382934,5.86086,0.018112,0.015546,-0.163314,0
107.5,0.787358,7.363553,6.518886,-0.080542,-0.059712,-0.288297,0
107.6,0.688654,7.68467,6.452366,-0.106199,-0.138636,-0.341351,0
107.7,0.138305,7.278847,6.554898,0.010629,-0.071074,-0.194561,0
107.8,1.262663,6.981509,6.627072,-0.062423,-0.161459,-0.307456,0
107.9,1.076531,7.079405,6.415158,-0.183504,-0.404637,-0.723416,0
108.0,-0.984407,7.459625,6.770252,-0.036133,-0.42956,-0.548465,0
108.1,-0.335593,7.314141,6.434061,0.122662,-0.067806,0.188757,0
108.2,0.051565,7.178827,6.127181,0.713124,0.20183,0.072907,0
108.3,1.547797,6.639245,6.656234,-0.367343,-0.203448,-0.154518,0
108.4,0.856032,7.071269,6.978907,-0.200608,-0.39697,-0.578581,0
108.5,0.21344,6.930452,7.034061,-0.112002,-0.569723,-0.717919,0
108.6,-0.473181,7.044769,7.05778,0.033139,-0.550122,-0.471015,0
108.7,-0.469791,6.932905,7.310871,0.192626,-0.234598,0.196953,0
108.8,-1.17667,6.976424,5.96441,0.362014,0.127823,0.77156,0
108.9,1.004746,6.967062,7.589077,0.342451,0.350911,0.883158,0
109.0,0.947319,6.882356,6.096673,0.208671,0.262366,0.537378,0
109.1,1.80359,7.136474,6.7078,0.018387,0.013531,0.002749,0
109.2,0.812842,7.487022,5.905127,-0.022694,-0.082497,-0.173363,0
109.3,-0.010768,7.886504,6.083751,-0.027672,0.008369,0.110719,0
109.4,0.092871,7.113563,7.118648,0.074335,0.199714,0.468266,0
109.5,1.23011,6.938787,6.779964,0.091146,0.289219,0.537332,0
109.6,1.511516,7.153343,5.614161,-0.073915,-0.042761,-0.165048,0
109.7,0.851247,7.457471,7.170452,-0.026634,-0.153144,-0.176784,0
109.8,0.091884,7.185766,5.408736,0.065179,0.13833,0.513187,0
109.9,1.884826,7.125586,6.500821,0.163376,0.423115,0.683405,0
110.0,2.00028,7.012885,6.608618,-0.030207,0.230296,0.147646,0
110.1,0.758046,7.454599,6.404749,-0.074251,-0.015913,-0.183595,0
110.2,0.899103,6.841199,6.341219,-0.006078,0.124067,0.143431,0
110.3,1.137428,7.54433,6.665925,0.038668,0.045631,0.084788,0
110.4,0.724068,6.915377,6.23103,0.013989,0.073456,0.216368,0
110.5,1.404587,7.084908,6.799325,0.090805,0.20522,0.396207,0
110.6,1.474577,7.117152,7.076773,0.092278,0.281952,0.453415,0
110.7,0.890728,7.123792,6.810212,0.158275,0.289855,0.431637,0
110.8,1.212324,6.806145,6.453682,0.200211,0.39019,0.488142,0
110.9,1.708954,7.26449,6.946244,0.054459,0.486279,0.600114,0
111.0,2.611646,6.868358,6.472825,0.156931,0.500512,0.359188,0
111.1,1.7135,7.399923,6.136872,0.103664,0.396146,-0.020036,0
111.2,1.326581,7.132765,5.92427,-0.029993,0.226264,-0.150639,0
111.3,1.07689,7.342257,6.413722,-0.113682,0.13378,-0.12764,0
111.4,1.452922,6.987281,6.867281,-0.114171,0.110994,-0.129167,0
111.5,1.53368,7.096753,6.264769,-0.069119,0.128953,-0.108459,0
111.6,1.508675,6.848976,6.734719,-0.145844,0.02642,-0.204945,0
111.7,0.908674,7.051289,6.894201,-0.102228,-0.04609,-0.278615,0
111.8,0.965803,7.019644,6.155686,-0.173906,-0.095715,-0.23041,0
111.9,0.886421,6.916095,7.177152,-0.104427,-0.081825,-0.119241,0
112.0,0.591027,7.233981,6.684231,0.027947,0.009163,0.041661,0
112.1,1.497668,6.860103,6.948039,-0.02755,0.050122,0.083352,0
112.2,1.248575,6.655636,6.555257,-0.027764,-0.052993,-0.164078,0
112.3,0.79023,6.98094,6.99769,-0.032773,-0.059193,-0.112766,0
112.4,0.679322,6.949714,7.235417,0.012645,0.022571,0.088148,0
112.5,1.21663,6.737351,6.725985,0.048472,0.084818,0.108856,0
112.6,1.396571,6.909156,6.732206,-0.003482,0.031093,-0.070677,0
112.7,0.718804,7.116255,6.404629,0.000947,-0.016707,-0.167377,0
112.8,0.909392,7.173204,6.852685,-0.067287,-0.02361,-0.050396,0
112.9,0.658146,6.915975,7.192227,-0.074739,0.06295,0.040958,0
113.0,1.079761,6.640801,6.816075,0.012431,0.034789,-0.066035,0
113.1,1.139582,6.710073,6.443722,-0.050129,-0.05513,-0.202158,0
113.2,1.473261,6.898149,7.581539,-0.138727,-0.167255,-0.306868,0
113.3,0.312981,7.045068,6.753622,-0.087109,-0.219728,-0.34804,0
113.4,0.901376,6.81775,7.059904,-0.092851,-0.199783,-0.095845,0
113.5,0.461935,7.018268,6.834739,0.021044,-0.115117,-0.030238,0
113.6,0.427717,6.984769,6.62094,0.054459,-0.073823,0.021777,0
113.7,1.20347,6.382735,7.869037,-0.00504,-0.07758,0.058063,0
113.8,0.553699,7.108956,6.373283,0.065882,-0.114476,-0.012248,0
113.9,1.05691,6.732326,7.196055,0.096944,0.028283,0.150517,0
114.0,0.721675,6.724789,6.324589,0.081856,0.081612,0.229838,0
114.1,1.201795,7.002147,7.409076,0.119004,0.086934,0.106329,0
114.2,1.215055,6.645367,6.668697,0.021737,0.035099,-0.006719,0
114.3,1.14347,7.134799,7.11102,-0.045319,0.002138,-0.03982,0
114.4,1.032981,6.735078,6.508717,-0.003879,0.025412,-0.034483,0
114.5,1.451247,7.048179,7.493483,-0.022052,0.048136,-0.082742,0
114.6,1.006182,6.664968,6.575716,-0.099296,-0.089003,-0.161268,0
114.7,0.995294,6.962396,7.039086,-0.015669,-0.032987,-0.150334,0
114.8,0.929013,6.626085,7.248817,-0.026909,-0.073426,-0.132466,0
114.9,0.716411,6.898149,6.053722,-0.038271,-0.06576,-0.121012,0
115.0,1.221536,6.912625,7.379943,-0.038087,-0.082283,-0.128159,0
115.1,0.523191,6.876494,7.373005,-0.002352,-0.121562,-0.13378,0
115.2,0.937867,6.716892,6.617471,0.057269,-0.055558,-0.056688,0
115.3,0.878046,6.656952,7.278368,0.010049,-0.058338,-0.011209,0
115.4,1.317099,6.590133,6.745666,-0.023251,-0.078764,-0.007636,0
115.5,0.928176,7.132047,7.224291,0.075503,-0.067867,-0.090347,0
115.6,1.300858,6.55753,6.506683,0.03879,-0.036499,-0.052687,0
115.7,0.887737,6.790591,7.052486,-0.064477,-0.122387,-0.060506,0
115.8,0.944088,6.994221,7.305168,-0.005956,-0.074342,-0.053909,0
115.9,0.776591,7.10764,6.903533,0.024801,-0.015699,0.074587,0
116.0,0.740579,6.822296,6.508956,0.012278,0.018418,0.086773,0
116.1,1.078206,6.574759,7.210771,-0.058918,-0.008338,0.018479,0
116.2,0.591506,6.792505,7.017072,0.023213,0.004856,0.042791,0
116.3,1.10022,6.66126,7.112306,-0.002046,-0.03036,0.037293,0
116.4,1.074019,6.995656,7.272506,-0.047739,-0.027825,0.005315,0
116.5,1.084666,6.851848,6.408936,-0.027214,-0.01179,-0.003268,0
116.6,1.252404,6.773483,6.828278,0.009346,0.016921,-0.059468,0
116.7,1.156631,7.071389,6.602097,-0.000267,-0.04822,-0.174058,0
116.8,1.453281,6.485028,7.583333,-0.068692,-0.149448,-0.254914,0
116.9,0.582772,6.802077,6.983811,-0.083475,-0.186467,-0.170859,0
117.0,0.875055,7.058468,6.856155,0.067012,-0.089492,0.044715,0
117.1,1.042433,6.713662,6.960721,0.075595,-0.000916,0.127151,0
117.2,0.825883,6.811768,7.036334,-0.000428,-0.05229,0.090622,0
117.3,0.767259,6.956414,6.991948,0.093584,0.075136,0.182129,0
117.4,1.468236,6.865726,6.879963,-0.015882,0.115392,0.170737,0
117.5,1.138505,6.667959,6.580741,-0.027336,0.051038,-0.059987,0
117.6,1.41679,6.722037,7.077012,-0.061483,-0.039309,-0.152869,0
117.7,1.19354,6.996494,7.143413,-0.07367,-0.057024,-0.177823,0
117.8,0.816311,6.768218,7.002476,-0.017501,-0.089461,-0.155007,0
117.9,1.077488,6.922196,6.772047,0.014325,-0.137781,-0.107115,0
118.0,0.856032,6.854091,7.279714,0.059636,-0.070937,-0.004314,0
118.1,0.258784,6.775397,6.87781,0.055192,-0.03653,0.143309,0
118.2,1.123071,6.96096,6.9344,0.096547,0.078435,0.303478,0
118.3,1.261376,6.536234,7.081678,0.084452,0.065515,0.146058,0
118.4,0.989911,6.620222,6.774081,0.039157,0.026481,0.062522,0
118.5,1.465843,6.760681,6.959405,0.052565,0.05397,0.144347,0
118.6,1.280878,6.96778,6.689016,0.017379,0.126419,0.126082,0
118.7,1.377548,7.008697,7.066723,-0.042211,0.087109,-9.1e-05,0
118.8,0.895035,6.911429,6.489455,0.003329,-0.004154,-0.108245,0
118.9,1.515255,6.925876,7.417601,0.027871,0.040508,-0.052229,0
119.0,1.023929,6.77757,6.725925,0.044364,0.138183,0.063021,0
119.1,1.041028,6.736843,6.92423,0.01111,0.141492,0.035926,0
119.2,1.445624,6.729216,6.967182,-0.024893,0.046029,-0.105466,0
119.3,1.038605,6.528099,7.01097,-0.065576,-0.056322,-0.18552,0
119.4,0.669392,7.114221,6.279006,0.014722,-0.087048,-0.172019,0
119.5,1.167697,6.701459,7.689575,-0.115056,-0.055589,-0.026634,0
119.6,1.197727,6.904729,6.937511,0.031429,0.004398,-0.016005,0
119.7,0.953181,6.567102,6.581459,0.041355,-0.040012,-0.112918,0
119.8,1.296431,6.895278,7.530452,-0.02306,-0.135734,-0.143675,0
119.9,0.857827,6.597969,7.020781,0.047617,-0.082558,-0.038485,0
120.0,1.309831,6.755656,6.926743,0.002566,-0.052107,0.016616,0
120.1,1.357179,7.101598,7.139734,0.045395,-0.06689,-0.02936,0
120.2,0.810768,6.525128,7.001598,-0.024154,-0.072897,0.011988,0
120.3,0.454935,7.239036,7.107431,0.074564,0.024664,0.181083,0
120.4,1.319044,6.795138,6.775995,0.063835,0.07703,0.240375,0
120.5,1.201915,6.671309,6.382854,0.019303,0.068844,0.09728,0
120.6,1.194856,6.7145,7.636694,-0.133382,-0.061942,0.045662,0
120.7,1.010489,6.645347,6.746683,0.00223,0.018906,-0.060323,0
120.8,0.921476,7.082755,6.698468,-0.018387,0.003329,-0.036377,0
120.9,1.32694,6.893243,6.754221,-0.007391,0.028955,-0.031368,0
121.0,1.688615,6.636493,7.003552,-0.044532,-0.080634,-0.30192,0
121.1,0.595933,6.941459,6.833303,-0.056719,-0.198256,-0.253204,0
121.2,0.484666,6.5476,7.408179,0.091477,-0.046151,0.100243,0
121.3,0.953839,6.645167,6.993025,0.096364,0.040317,0.278478,0
121.4,1.458426,6.730811,7.023732,0.086768,0.117133,0.249386,0
121.5,1.491776,7.018598,6.756883,0.030811,0.004429,0.061316,0
121.6,1.060618,6.650252,7.002715,-0.060842,0.045723,0.070097,0
121.7,0.948993,7.04447,7.186125,0.010079,0.10119,0.106657,0
121.8,1.311386,6.569255,6.592585,0.095295,0.16921,0.094226,0
121.9,1.806222,6.678966,6.787241,-0.023396,0.059498,-0.108367,0
122.0,1.271307,6.967301,7.228598,-0.066829,-0.038912,-0.269972,0
122.1,0.787119,6.752426,7.118886,0.00898,-0.024038,-0.150609,0
122.2,0.797887,6.632187,7.162675,0.096639,0.044868,0.026664,0
122.3,1.363311,6.936314,6.765826,-0.011515,0.037477,0.009835,0
122.4,1.245943,6.592226,7.013961,-0.090805,-0.0551,-0.149173,0
122.5,1.128216,7.025806,7.266285,-0.092546,-0.162765,-0.263527,0
122.6,1.267448,6.572486,7.04432,-0.035621,-0.172951,-0.223576,0
122.7,0.918963,6.712944,6.970053,-0.036224,-0.155007,-0.10348,0
122.8,0.941815,6.504888,7.102496,0.013195,-0.163498,-0.060201,0
122.9,1.078206,6.805786,7.284231,-0.053115,-0.17935,-0.004306,0
123.0,0.773719,6.761997,7.197611,0.076602,-0.063194,0.123303,0
123.1,0.551665,6.61436,7.076175,0.114201,0.085002,0.34972,0
123.2,1.047219,6.859505,6.67454,0.168079,0.13998,0.289703,0
123.3,1.47685,6.843951,7.18445,0.008522,0.102167,0.202929,0
123.4,1.242234,6.725626,6.88451,0.051801,0.145386,0.133505,0
123.5,1.522314,6.532765,7.118169,-0.025259,0.063347,0.024251,0
123.6,0.939781,6.521997,7.230392,-0.003299,0.021166,-0.046792,0
123.7,0.655394,6.9679,6.819903,0.093218,0.082803,0.159314,0
123.8,1.646501,6.716892,6.815955,0.085735,0.143339,0.188574,0
123.9,1.662533,6.736274,7.283872,-0.041905,-0.016402,-0.11075,0
124.0,0.77333,7.229166,6.553194,-0.016837,-0.026687,-0.044364,0
124.1,1.043031,6.629674,7.131209,0.016921,0.074251,0.146363,0
124.2,1.586681,6.493283,6.80423,0.005742,0.086346,0.120799,0
124.3,1.432104,6.669275,6.824569,-0.01405,0.055955,0.011942,0
124.4,1.632862,6.670352,7.118288,-0.024618,-0.00168,-0.051526,0
124.5,1.047937,6.826843,7.069235,-0.017623,0.020647,0.024709,0
124.6,0.788674,6.910352,6.913941,0.075411,0.09896,0.150853,0
124.7,1.479004,6.593423,7.039565,0.082131,0.215727,0.256502,0
124.8,1.445026,7.010731,6.625008,0.034575,0.171378,0.071105,0
124.9,2.051726,6.579425,7.365228,-0.122906,0.038301,-0.147035,0
125.0,1.300499,6.609694,6.893602,-0.073487,-0.009407,-0.220553,0
125.1,0.829262,6.738936,6.786942,-0.03669,0.028329,-0.083154,0
125.2,0.788555,6.789634,7.155138,-0.01799,0.051435,-0.002382,0
125.3,1.504009,6.635058,7.048538,-0.07532,-0.000947,-0.086132,0
125.4,1.247259,6.991588,7.015038,-0.08207,-0.085307,-0.216888,0
125.5,1.155255,6.833184,6.709355,-0.059895,-0.108093,-0.239123,0
125.6,1.101416,6.840123,6.946843,-0.080542,-0.132527,-0.213039,0
125.7,1.077847,6.521758,7.13779,-0.042455,-0.139796,-0.16081,0
125.8,0.97005,6.787241,7.632387,-0.002535,-0.121318,-0.11753,0
125.9,0.70002,6.71115,6.708039,0.052901,-0.098807,-0.020556,0
126.0,1.19031,6.735437,7.268438,0.020097,-0.063958,0.022144,0
126.1,0.371635,6.895367,6.811319,0.111025,0.012141,0.116102,0
126.2,0.956232,6.69761,6.845766,0.07002,0.115504,0.254782,0
126.3,1.3334,6.97113,6.661977,-0.010476,0.031276,-0.067653,0
126.4,1.337438,7.143623,7.38126,-0.094722,-0.114002,-0.262748,0
126.5,0.797767,6.886902,6.770013,-0.046303,-0.152747,-0.248958,0
126.6,0.337866,6.776115,6.885706,0.056658,-0.048105,-0.062797,0
126.7,0.703131,6.798966,6.932964,0.090133,0.016676,0.158428,0
126.8,1.294158,6.500103,7.27765,-0.002077,-0.017929,0.083994,0
126.9,1.204068,6.620701,6.847899,0.025748,-0.083322,-0.039523,0
127.0,1.113141,6.582057,7.436055,0.016188,0.000427,0.060628,0
127.1,1.221895,6.574998,7.479007,0.081581,0.068997,0.05397,0
127.2,1.003191,6.469355,7.108358,-0.053512,-0.083994,-0.033964,0
127.3,0.871346,6.845507,6.951509,0.048289,0.024068,0.149662,0
127.4,0.865125,6.611489,6.586723,0.055894,0.078893,0.158611,0
127.5,1.53694,7.112964,7.496414,-0.030963,-0.031192,0.065744,0
127.6,1.205026,6.609574,6.98776,-0.038454,-0.018754,0.059529,0
127.7,0.84347,7.000442,6.572007,0.015516,0.028161,0.108612,0
127.8,1.256112,6.949594,7.190791,0.014081,-0.017654,0.016127,0
127.9,1.007737,6.634221,6.932725,0.046365,-0.010476,0.058735,0
128.0,0.968854,6.809734,7.110033,0.010538,0.018326,0.223332,0
128.1,1.432942,6.960362,8.295557,-0.011454,0.107115,0.400422,0
128.2,1.10333,6.564709,5.654838,-0.036591,0.220369,0.323361,0
128.3,1.25695,6.719046,7.176793,0.058643,0.211756,0.311205,0
128.4,1.114098,6.918009,6.519484,0.166491,0.33958,0.367679,0
128.5,2.116571,6.903652,7.098548,0.04722,0.287259,0.257479,0
128.6,1.813879,6.755776,7.085746,-0.067134,0.159191,-0.004673,0
128.7,1.38694,6.803543,6.062964,0.049098,0.213726,-0.0562,0
128.8,1.529512,6.67119,6.384749,-0.013643,0.156712,-0.133245,0
128.9,1.346561,6.999754,7.684251,-0.084834,0.075366,-0.115759,0
129.0,1.273819,6.741419,5.846025,0.037507,-0.097983,-0.259068,0
129.1,0.683869,6.965267,7.932566,-0.224554,0.034453,-0.111971,0
129.2,0.842274,6.872067,7.244988,0.056871,0.052107,0.125899,0
129.3,0.859981,7.042555,6.913224,0.129962,0.224126,0.310869,0
129.4,1.550908,6.56076,7.046264,0.023732,0.130756,0.09334,0
129.5,0.865484,6.81775,6.742256,0.002199,0.033231,-0.025015,0
129.6,1.89691,6.752904,6.65432,-0.00953,0.096639,0.08265,0
129.7,1.894637,6.709953,7.002117,-0.019456,0.094593,-0.10067,0
129.8,1.3401,6.726583,6.98776,-0.108367,-0.021044,-0.21423,0
129.9,1.038635,6.512814,7.048658,-0.087468,-0.071853,-0.270728,0
130.0,0.953061,6.670352,7.251569,-0.055619,-0.118996,-0.213528,0
130.1,0.794776,6.599883,7.213403,0.011393,-0.085796,-0.10235,0
130.2,0.745005,6.703851,7.272506,0.061758,-0.022419,0.059346,0
130.3,1.198684,6.531568,7.124151,0.032498,-0.017929,0.123853,0
130.4,1.049133,6.586005,7.158009,-0.021044,-0.060628,0.05959,0
130.5,0.569372,6.646543,6.724191,-0.000244,-0.063408,0.087384,0
130.6,0.875773,6.689136,7.425407,0.153785,0.090255,0.316764,0
130.7,1.492045,6.600482,7.059904,0.117836,0.153266,0.363495,0
130.8,1.57017,6.688179,7.154779,0.035522,0.024007,0.09673,0
130.9,0.876132,6.543413,7.329575,0.121043,0.063652,0.186253,0
131.0,0.690329,6.613642,6.908198,0.210718,0.234725,0.473054,2
131.1,0.708634,6.703373,7.275856,0.243735,0.358517,0.659887,2
131.2,1.661367,6.416204,7.152895,0.159474,0.437036,0.687834,2
131.3,2.60698,6.606942,6.710312,0.067012,0.210962,0.171011,2
131.4,0.909392,6.786524,7.199405,0.001588,0.138239,0.059346,2
131.5,2.247817,6.429634,7.238169,0.052656,0.26704,0.467281,2
131.6,1.934956,6.578109,6.564828,0.044899,0.167591,0.083994,2
131.7,0.59988,6.867521,7.255876,0.143675,0.17993,0.117805,2
131.8,1.304208,6.73412,7.723075,0.203204,0.382554,0.616088,2
131.9,2.424169,6.676215,6.321598,0.216765,0.489395,0.514654,2
132.0,2.42704,6.485148,6.469953,0.053603,0.293184,0.080787,2
132.1,2.148276,7.288538,6.702894,0.051068,0.198989,-0.080115,2
132.2,1.818306,7.118408,6.170132,-0.001527,0.138636,-0.166369,2
132.3,1.252762,6.625487,7.306484,-0.0478,0.060353,-0.209954,2
132.4,0.544606,7.279206,6.413243,0.029505,0.129656,0.062614,2
132.5,1.44691,7.062865,7.498209,0.054291,0.144279,0.113888,2
132.6,1.095315,6.521519,6.61101,-0.022938,0.10006,0.078313,2
132.7,1.372882,6.908797,6.879724,-3.1e-05,0.089583,0.086498,2
132.8,1.426122,6.906883,7.236494,0.023671,0.097463,0.08265,2
132.9,1.043749,7.0812,7.128697,0.050854,0.024496,0.028527,2
133.0,0.667478,6.79095,7.106325,0.122967,0.068875,0.16866,2
133.1,1.122114,6.675736,6.488617,0.099052,0.214017,0.525741,2
133.2,2.028516,6.856155,6.805905,0.110047,0.263466,0.336739,2
133.3,1.734078,6.502137,7.435816,0.025442,0.168599,0.189368,2
133.4,1.169253,6.894799,6.751469,0.104977,0.194255,0.221194,2
133.5,1.412005,6.756733,6.64774,0.107695,0.295231,0.365511,2
133.6,1.808376,6.315018,7.492167,0.144256,0.361327,0.260931,2
133.7,1.745205,7.063732,6.888338,0.036347,0.20183,0.071227,2
133.8,1.501197,6.643373,6.867999,0.085903,0.197615,0.062614,2
133.9,1.397289,6.931529,6.538986,0.051741,0.232281,0.169484,2
134.0,1.57687,6.82457,6.933443,0.053726,0.257968,0.17935,2
134.1,1.329213,6.893603,7.161838,-0.013225,0.210443,0.122203,2
134.2,1.234696,6.655397,6.564589,-0.030513,0.186069,0.157481,2
134.3,1.539064,6.740701,7.369415,-0.010018,0.209618,0.117408,2
134.4,1.626043,6.847182,6.731848,0.037477,0.216949,0.060506,2
134.5,1.670429,6.702775,6.963353,-0.057879,0.090102,-0.142301,2
134.6,1.415594,6.890731,6.935716,-0.035766,-0.006292,-0.24065,2
134.7,1.035613,6.964071,6.979026,-0.022541,-0.027611,-0.166796,2
134.8,1.066601,6.850651,6.608078,0.021991,0.047418,0.001336,2
134.9,1.352643,6.724729,6.978069,-0.009265,0.061494,0.042786,2
135.0,1.259971,6.820591,7.056135,-0.05284,0.053183,0.020998,2
135.1,1.37037,6.491967,7.286264,-0.044776,0.070769,0.018876,2
135.2,1.739462,6.666165,7.135278,-0.025198,0.002138,-0.125899,2
135.3,1.42672,6.823971,6.91119,-0.078405,-0.097891,-0.259404,2
135.4,0.909153,6.674779,7.159445,-0.015363,-0.118599,-0.237107,2
135.5,0.613759,6.758647,6.721917,0.044349,-0.112766,-0.104305,2
135.6,0.855075,7.12451,7.226803,0.003757,0.014844,0.151433,2
135.7,0.968136,6.77767,6.771688,0.091996,0.126419,0.226417,2
135.8,1.087897,6.762595,7.309714,0.005223,0.132344,0.207205,2
135.9,1.04013,6.72787,6.83091,0.025504,0.097586,0.066012,2
136.0,1.358824,6.655138,7.025726,-0.02138,0.009927,-0.128052,0
136.1,0.953241,6.861569,6.955936,-0.080252,-0.102663,-0.200669,0
136.2,0.829951,6.905327,6.798488,-0.055894,-0.021411,-0.022999,0
136.3,1.192104,6.636254,6.84419,0.004978,0.046578,0.046303,0
136.4,1.395135,6.933921,6.946005,-0.018845,-0.037904,-0.154396,0
136.5,0.705524,6.961678,6.969455,-0.055406,-0.138147,-0.248439,0
136.6,0.822054,6.613762,7.193902,0.033414,-0.070311,-0.049846,0
136.7,0.793699,6.757331,6.471867,0.065943,0.008186,0.086773,0
136.8,1.536192,6.363592,7.243074,-0.04218,0.021289,0.117408,0
136.9,1.641776,6.493972,7.451998,-0.068112,-0.052611,-0.060743,0
137.0,1.280997,6.840003,7.076414,-0.055986,-0.124586,-0.208366,0
137.1,0.784487,6.536354,7.196653,0.026603,-0.076083,-0.07648,0
137.2,1.147359,6.448896,6.981299,0.046853,-0.029535,0.025656,0
137.3,1.197249,6.999844,6.918129,0.008002,-0.082711,-0.089308,0
137.4,0.919203,6.408577,7.091489,0.021778,-0.104733,-0.102289,0
137.5,0.402353,6.997212,7.340103,0.090713,0.059254,0.211451,0
137.6,1.139582,6.931528,6.938707,0.190437,0.218445,0.366,0
137.7,1.427678,6.523433,7.067321,0.011087,0.078985,0.021838,0
137.8,1.182892,6.375676,7.34776,-0.052382,-0.072143,-0.155954,0
137.9,0.741476,6.779914,6.893423,0.051198,-0.004352,0.008399,0
138.0,1.120539,7.038986,7.015058,0.061036,0.087455,0.160097,0
138.1,1.67363,6.151348,7.525576,0.018364,0.122898,0.125075,0
138.2,1.599243,6.579066,6.821459,-0.037538,0.012675,-0.046487,0
138.3,1.197368,7.059305,6.981778,-0.032895,-0.035919,-0.14731,0
138.4,0.719043,6.566623,7.22453,0.004582,0.03876,0.036591,0
138.5,1.453759,6.444589,7.195696,0.026115,0.00565,0.013958,0
138.6,1.087299,6.726942,7.146165,-0.02642,-0.020922,0.005406,0
138.7,1.181097,6.661379,6.88451,0.056841,0.006628,0.01408,0
138.8,1.107159,6.762117,7.076175,0.020922,-0.022938,-0.021686,0
138.9,1.08,6.818588,7.284231,0.025381,-0.009957,0.029383,0
139.0,0.855195,6.551189,6.856035,0.039492,0.092302,0.193094,0
139.1,0.991077,6.846464,6.990182,0.05387,0.090026,0.17696,0
139.2,1.385325,6.786284,7.244749,0.018112,0.02306,0.065637,0
139.3,0.513021,7.05117,6.904729,0.043463,0.089797,0.207022,0
139.4,0.900539,6.860342,6.806743,0.148226,0.248836,0.436952,0
139.5,1.40686,6.678488,6.73783,0.07758,0.275072,0.398009,0
139.6,2.483869,6.817152,6.057191,-0.047556,0.118722,-0.010629,0
139.7,2.045624,6.992904,7.209096,-0.171897,-0.106718,-0.461631,0
139.8,0.689372,7.042316,7.406145,-0.167927,-0.171623,-0.364136,0
139.9,0.569492,6.799804,6.086025,0.001894,0.040684,0.083536,0
140.0,1.427319,6.642356,7.31103,0.018143,0.107787,0.161971,0
140.1,1.59362,6.855078,7.109196,-0.044715,-0.068631,-0.209618,0
140.2,0.36658,7.175238,6.631588,-0.0405,-0.181885,-0.294773,0
140.3,0.777308,7.635018,8.905248,0.423421,0.022205,0.043615,0
140.4,-1.195514,4.159174,-2.811866,0.320017,0.684703,0.188986,0
140.5,1.637488,8.053144,9.913863,-0.279216,0.669762,0.678187,0
140.6,1.895714,6.747012,6.982406,0.630947,0.456736,0.414281,0
140.7,2.007339,6.648817,6.140222,-0.338236,-0.023274,0.033873,0
140.8,1.221656,7.748199,6.735437,-0.163223,-0.083536,-0.332035,0
140.9,0.479881,6.616873,6.652406,0.551183,-0.029749,-0.284999,0
141.0,1.406381,5.653044,6.718926,-0.343489,0.072968,0.420825,0
141.1,1.496112,6.912027,8.277013,-0.003452,0.099724,0.219789,0
141.2,-0.059462,7.499465,5.676852,0.013439,0.231854,0.315267,0
141.3,2.307279,6.273862,-2.118246,1.16666,0.457171,0.220583,0
141.4,1.769612,7.03454,10.32826,-0.372291,-0.300423,0.194224,0
141.5,0.834497,7.299904,5.390312,0.131703,0.309678,0.067989,0
141.6,2.360639,6.353662,7.809216,0.1175,0.255189,-0.047403,0
141.7,2.424528,3.771537,7.519894,-0.104687,-0.062614,-0.418671,0
141.8,2.151267,6.590551,5.549434,-0.612758,-0.266337,-0.41383,0
141.9,0.219302,7.93795,8.678648,-0.241963,-0.425437,-0.759824,0
142.0,0.053958,6.547959,6.512426,-0.015577,-0.190437,-0.190009,0
142.1,1.102134,6.990392,7.368937,-0.012889,-0.069119,0.099021,0
142.2,0.479881,7.018866,6.627042,0.067898,0.092424,0.29517,0
142.3,1.365703,7.049974,6.670831,0.076755,0.121531,0.203327,0
142.4,1.248336,6.822655,6.685547,0.024771,-0.00846,-0.166552,0
142.5,0.898744,6.763911,7.225606,-0.052443,-0.105557,-0.201127,0
142.6,0.599402,6.953543,6.870392,-0.056444,-0.179442,-0.197309,0
142.7,-0.030867,7.108358,7.156813,0.059559,-0.007055,0.18497,0
142.8,1.164348,6.578827,8.099705,0.208305,0.243124,0.489914,0
142.9,1.135843,6.52762,4.77069,0.160963,0.156954,0.248737,0
143.0,1.311985,6.606942,7.860662,-0.122936,-0.15458,-0.108398,0
143.1,-0.148236,7.089455,6.907122,0.057757,0.053023,0.244285,0
143.2,1.397169,6.670472,7.019943,0.194102,0.323392,0.596998,0
143.3,1.890928,6.769415,7.433303,0.001833,0.103939,0.162093,0
143.4,0.865963,6.335357,6.405108,0.011026,0.040134,0.051404,0
143.5,1.017309,7.245826,7.182177,0.130664,0.222691,0.365328,0
143.6,2.193142,6.489814,7.023413,0.156809,0.379255,0.454178,0
143.7,2.067757,6.544609,6.992665,0.023854,0.248988,0.082956,0
143.8,1.873341,6.703014,6.641877,-0.098655,0.049144,-0.221225,0
143.9,1.730131,6.718448,6.795497,-0.077336,-0.023793,-0.31261,0
144.0,1.878366,6.69108,7.345517,-0.11217,-0.106214,-0.351934,2
144.1,0.91346,6.598807,7.149873,-0.095051,-0.189063,-0.40424,2
144.2,0.699303,6.972207,7.111947,0.056413,-0.07987,-0.033139,2
144.3,0.360239,6.795975,7.075936,0.100854,0.014447,0.197798,2
144.4,0.327099,7.079285,6.836653,0.11863,0.108978,0.396695,2
144.5,0.474018,6.941459,7.018029,0.19398,0.280998,0.646478,2
144.6,1.4735,6.728139,6.955935,0.189429,0.330508,0.515906,2
144.7,1.467398,6.708877,6.719166,0.020158,0.111941,0.209863,2
144.8,0.598086,7.086105,7.164111,0.065149,0.118446,0.240864,2
144.9,1.199881,6.809854,6.895158,0.175349,0.326019,0.599961,2
145.0,2.028515,6.744888,6.569016,0.206655,0.358089,0.504727,2
145.1,2.226163,6.957012,6.990152,0.045021,0.189582,0.12312,2
145.2,0.641516,7.051768,6.716533,0.0281,0.129442,0.105771,2
145.3,1.306481,6.938887,6.795616,0.15997,0.368733,0.557681,2
145.4,2.330011,6.841798,6.872187,0.165117,0.37504,0.407447,2
145.5,1.910549,6.929136,6.905806,0.0062,0.127151,0.002382,2
145.6,1.359602,6.704211,7.448617,0.038118,0.133016,0.123883,2
145.7,1.275374,6.981778,6.36419,0.141934,0.209496,0.354149,2
145.8,1.315454,6.895756,7.237929,0.154488,0.366397,0.533468,2
145.9,1.934477,6.809375,7.353024,0.22715,0.481911,0.575862,2
146.0,1.89033,6.81452,5.829155,0.204059,0.469266,0.42058,2
146.1,2.505884,6.95103,6.738667,0.124219,0.363953,0.099449,2
146.2,1.650808,6.863453,6.265008,-0.036102,0.216001,-0.070402,2
146.3,1.406262,7.243672,6.315856,-0.073029,0.164323,-0.006475,2
146.4,1.57672,6.726075,6.743273,0.000267,0.313832,0.193873,2
146.5,1.825604,6.982137,6.63446,-0.001558,0.314779,0.165391,2
146.6,1.766621,6.539345,6.675856,-0.076114,0.126021,-0.152686,2
146.7,1.66349,7.017431,7.114579,-0.120554,0.003818,-0.279165,2
146.8,0.745963,6.745128,7.226803,-0.086468,-0.030696,-0.089614,2
146.9,1.08024,7.049973,6.892167,0.176448,0.158336,0.121409,2
147.0,1.636691,6.91107,7.290093,0.068081,0.109956,0.092882,2
147.1,1.267957,6.706005,6.583493,0.04215,-0.00446,-0.054397,2
147.2,1.106322,7.075816,6.681957,0.088178,-0.023366,-0.022724,2
147.3,1.070788,6.846344,7.145806,0.152228,0.053176,0.113102,2
147.4,0.344417,6.793074,7.119694,0.141377,0.123738,0.407523,2
147.5,1.314856,6.510511,7.542775,0.196607,0.298255,0.689483,2
147.6,1.588714,6.651449,7.238049,0.169393,0.369115,0.610712,2
147.7,2.073142,6.532765,7.007262,0.130725,0.343581,0.457935,2
147.8,1.46034,6.74429,6.683154,0.149081,0.336709,0.319268,2
147.9,1.440719,6.935716,6.77779,0.188879,0.415968,0.458942,2
148.0,1.672104,6.838687,7.171409,0.197035,0.520182,0.514623,2
148.1,2.268037,7.138747,6.426763,0.206228,0.555032,0.408149,2
148.2,2.286581,6.814879,6.753862,0.05846,0.408485,0.091844,2
148.3,2.549313,6.59438,6.19765,-0.061575,0.286098,-0.180724,2
148.4,2.091088,6.788438,6.873024,-0.163376,0.068264,-0.537225,2
148.5,1.313899,6.845985,6.510392,-0.241811,-0.210321,-0.738627,2
148.6,0.64355,6.969335,7.171648,-0.106199,-0.133504,-0.355309,2
148.7,1.321137,7.15095,7.193274,-0.013592,-0.002902,-0.031383,2
148.8,1.169372,6.611608,7.031429,-0.015974,-0.040836,-0.086437,2
148.9,1.068635,6.870153,6.94457,0.002566,-0.055711,-0.0832,2
149.0,0.900539,6.62764,6.787481,-0.00339,-0.037721,0.010354,2
149.1,0.876491,6.683034,7.405547,0.025259,0.027733,0.134268,2
149.2,0.982373,6.638288,6.946603,0.082039,0.141324,0.270338,2
149.3,1.436172,6.569615,6.992426,0.045754,0.188543,0.315817,2
149.4,1.92371,6.281518,7.238408,-0.105649,-0.043463,-0.123914,2
149.5,1.328017,6.632545,7.116973,-0.046975,-0.140896,-0.26313,2
149.6,0.915613,6.857351,7.143772,0.00898,0.019181,0.075595,2
149.7,1.146282,6.620581,7.061698,0.06069,0.109161,0.206289,2
149.8,1.42687,6.423532,7.312167,0.003742,0.084185,0.137063,2
149.9,1.7135,6.686862,6.832227,-0.032926,-0.019089,-0.047923,2
150.0,1.4668,6.690213,6.941459,-0.023549,-0.063408,-0.156809,0
150.1,0.8869,6.814998,7.170691,-0.000336,-0.053329,-0.091172,0
150.2,0.769053,6.826125,7.043752,0.106779,0.020281,0.107848,0
150.3,0.410967,7.008338,7.159206,0.140774,0.214261,0.452559,0
150.4,1.48678,6.776354,6.686264,0.181274,0.347215,0.552894,0
150.5,1.988675,6.717371,6.743812,0.098135,0.281517,0.233228,0
150.6,1.671506,7.034061,6.448059,-0.005315,0.116736,-0.143309,0
150.7,1.343929,7.107162,6.948398,-0.132741,-0.083078,-0.31878,0
150.8,0.537667,6.988957,6.547122,0.00449,-0.004032,-0.156656,0
150.9,1.167339,6.650851,7.308996,0.015699,0.13491,0.172539,0
151.0,1.269243,6.888488,6.578767,0.027489,0.174746,0.120493,0
151.1,2.045624,6.798607,6.768816,-0.111849,0.001863,-0.207694,0
151.2,1.191626,6.647381,6.971608,-0.182221,-0.225104,-0.526321,0
151.3,0.827558,7.064211,6.628837,-0.095325,-0.236069,-0.462791,0
151.4,0.912264,7.193423,7.097112,-0.061819,-0.26762,-0.367588,0
151.5,0.450449,6.456673,7.393822,0.022449,-0.08323,0.027275,0
151.6,1.404109,6.51087,6.944689,0.037904,-0.019609,0.071746,0
151.7,1.294038,6.724669,7.25444,-0.014691,-0.144714,-0.215452,0
151.8,1.167817,6.491967,7.532008,0.001161,-0.153052,-0.17092,0
151.9,-0.013639,6.628956,7.197012,0.108764,-0.04838,0.077702,0
152.0,1.317368,6.693921,6.841798,0.085338,0.032009,0.21252,0
152.1,1.050689,6.444709,7.451728,0.047984,-0.023427,0.053481,0
152.2,0.798605,6.516135,7.060262,0.049541,-0.002841,0.131702,0
152.3,1.257727,6.657281,7.17787,0.003627,-0.023594,0.139392,0
152.4,0.803151,6.663891,7.208378,0.067287,0.083444,0.270155,0
152.5,1.253839,6.660063,7.033104,0.135001,0.231609,0.457079,0
152.6,1.355056,6.530611,7.168777,0.086285,0.226264,0.367283,0
152.7,1.544328,6.676693,7.583812,0.081428,0.198989,0.250088,0
152.8,1.514656,6.554061,6.832107,0.033109,0.120371,0.089675,0
152.9,1.377548,6.726823,6.552505,0.072754,0.151678,0.100915,0
153.0,1.430788,6.49424,6.990751,0.15351,0.274462,0.240833,0
153.1,2.098266,6.716892,6.954859,0.032834,0.163864,0.102503,0
153.2,2.35693,6.877092,6.760562,-0.086376,-0.051191,-0.320948,0
153.3,1.488485,7.037441,7.203293,-0.174249,-0.187459,-0.493579,0
153.4,1.138984,6.721339,7.186244,-0.122682,-0.113544,-0.261654,0
153.5,0.518794,6.605088,6.249604,0.054214,0.041119,-0.090256,0
153.6,0.713061,6.715217,6.289415,0.013653,-0.007147,-0.024343,0
153.7,2.365185,6.815596,7.431868,-0.164353,-0.185856,-0.244071,0
153.8,1.282074,6.708637,7.223573,-0.157359,-0.317619,-0.56841,0
153.9,0.817388,6.910831,7.123433,-0.029993,-0.202166,-0.296758,0
154.0,0.370888,6.594141,7.356733,0.044013,0.020861,0.204548,0
154.1,1.746402,6.414081,7.317132,0.061422,0.152778,0.42507,0
154.2,1.607738,6.452964,6.759365,0.008155,0.002627,-0.084085,0
154.3,1.351107,6.677411,7.055357,-0.121654,-0.239764,-0.421069,0
154.4,1.102972,6.678248,7.359126,-0.138605,-0.27272,-0.399047,0
154.5,0.615314,6.660542,7.341539,-0.102503,-0.26371,-0.358303,0
154.6,0.098704,6.701848,7.059574,0.052305,-0.161268,-0.130534,0
154.7,0.325184,6.858428,7.226205,0.118447,0.009224,0.245079,0
154.8,0.319681,6.842276,6.932725,0.183229,0.216399,0.545166,0
154.9,1.361396,6.882835,6.732805,0.179686,0.222507,0.455492,0
155.0,1.255634,7.079286,6.61448,0.056994,0.110841,0.186253,0
155.1,0.562433,6.983453,6.832346,0.101617,0.171164,0.262611,0
155.2,1.651407,7.063612,6.477251,0.085979,0.236466,0.363281,0
155.3,2.075415,6.870871,6.736513,-0.056414,0.066676,-0.043463,0
155.4,1.298705,7.146045,6.479046,-0.108398,-0.054061,-0.257083,0
155.5,1.22357,6.936314,6.704928,-0.112979,-0.156259,-0.339335,0
155.6,0.781017,6.931529,6.98118,-0.060537,-0.040439,-0.121562,0
155.7,1.197309,7.069744,6.498009,-0.016913,-0.006337,-0.07109,0
155.8,1.142214,6.827202,7.345009,-0.107176,-0.121929,-0.243368,0
155.9,0.327099,6.774919,7.096274,-0.001771,-0.085582,-0.102656,0
156.0,0.68004,7.125945,6.594619,0.06634,0.114506,0.246667,1
156.1,1.842952,6.606224,6.583493,0.001405,0.094104,0.114843,1
156.2,1.60702,6.938468,6.5744,-0.104549,-0.083139,-0.315145,1
156.3,0.978664,6.93775,7.043154,-0.146791,-0.235672,-0.521526,1
156.4,0.526421,7.029275,7.085866,-0.125288,-0.238115,-0.415419,1
156.5,0.590668,6.783293,6.945407,-0.027153,-0.117836,-0.161177,1
156.6,1.484747,6.697152,6.918966,-0.074831,-0.103939,-0.155893,1
156.7,1.703211,6.780781,7.198209,-0.123761,-0.273179,-0.548434,1
156.8,0.93356,6.806145,6.681359,-0.15012,-0.367527,-0.672043,1
156.9,0.877268,6.622735,7.827372,-0.133588,-0.403362,-0.686421,1
157.0,0.285224,6.358448,7.524111,-0.077549,-0.343947,-0.45821,1
157.1,0.458943,6.631229,7.219624,0.053695,-0.209588,-0.243735,1
157.2,0.77348,6.352466,7.054878,0.002657,-0.241506,-0.362487,1
157.3,0.529651,6.688777,7.660622,-0.005895,-0.336373,-0.462516,1
157.4,0.187956,6.659106,7.222137,0.010599,-0.338205,-0.415571,1
157.5,-0.131485,6.629195,7.162675,0.10849,-0.20577,-0.120096,1
157.6,0.606461,6.624889,7.236733,0.162826,-0.109772,-0.055405,1
157.7,1.033699,6.629674,7.020781,-0.027367,-0.247156,-0.24343,1
157.8,0.060419,6.935836,7.006065,-0.010629,-0.303966,-0.371009,1
157.9,0.318844,6.612565,7.532127,0.06689,-0.158153,-0.063011,1
158.0,0.163609,6.754639,7.096813,0.054062,-0.112132,-0.018784,1
158.1,0.607777,6.470192,7.34465,0.014508,-0.191323,-0.115117,1
158.2,0.740818,6.596174,7.198089,0.058857,-0.134543,-0.069455,1
158.3,0.949352,6.78102,7.143772,-0.025839,-0.15684,-0.125869,1
158.4,0.557647,6.744889,6.736753,0.022969,-0.202318,-0.250821,1
158.5,0.316571,6.80782,7.314141,0.072418,-0.110506,-0.08604,1
158.6,0.939781,6.73101,6.427839,0.011454,-0.024373,0.074617,1
158.7,1.767817,6.714978,7.719126,-0.089553,-0.198012,-0.35702,1
158.8,-0.077168,7.058827,6.285706,-0.07645,-0.365633,-0.628336,1
158.9,0.274098,6.816195,7.400044,-0.002841,-0.278157,-0.326019,1
159.0,0.32662,6.789395,7.325866,0.035797,-0.12987,-0.034209,1
159.1,1.052842,6.639843,6.982256,0.042089,-0.136528,-0.06857,1
159.2,1.166501,6.969096,6.975317,-0.06805,-0.253601,-0.337289,1
159.3,0.908076,6.836294,7.19447,-0.050473,-0.287106,-0.420848,1
159.4,0.33667,6.514699,7.094719,-0.016921,-0.246942,-0.307937,1
159.5,0.206022,6.877092,7.26114,0.092363,-0.157145,-0.140713,1
159.6,0.814277,6.53767,7.169854,0.079657,-0.140499,-0.099724,1
159.7,0.700379,7.025208,7.289495,-0.052015,-0.196118,-0.166124,1
159.8,0.42688,6.85101,6.639963,0.014661,-0.161116,-0.147371,1
159.9,0.534557,6.796095,6.953662,-0.006048,-0.141171,-0.102442,1
160.0,0.742852,6.806384,6.851967,0.029291,-0.095753,-0.151128,1
160.1,0.847897,6.891568,6.641638,-0.056536,-0.216857,-0.258854,1
160.2,0.592942,6.908199,7.411051,-0.092363,-0.248592,-0.30363,1
160.3,0.535873,6.998887,7.357929,0.016616,-0.210168,-0.199905,1
160.4,0.547957,6.588278,6.978069,0.052504,-0.150334,-0.145661,1
160.5,0.634846,6.585048,7.122984,0.00336,-0.205747,-0.158481,1
160.6,0.484188,6.612685,7.10453,0.053206,-0.125258,-0.063652,1
160.7,0.742852,6.900063,6.842037,0.068661,-0.081887,-0.02025,1
160.8,1.14676,6.77121,7.165068,-0.044837,-0.162918,-0.18778,1
160.9,0.524148,6.719884,6.909993,-0.039645,-0.225592,-0.314046,1
161.0,0.531805,6.953184,7.212805,-0.042364,-0.219697,-0.201219,1
161.1,0.674417,6.841918,7.465128,0.015394,-0.21142,-0.13436,1
161.2,0.247657,6.501778,6.608617,0.015577,-0.17935,-0.031307,1
161.3,0.974238,6.836294,7.232785,0.094348,-0.115973,0.043891,1
161.4,0.822772,6.781619,6.925547,0.089308,-0.040042,0.109436,1
161.5,1.0002,6.498069,6.87793,0.05229,-0.049144,0.09218,1
161.6,0.792503,6.888937,7.21759,0.069516,-0.05678,0.060873,1
161.7,1.096212,6.89088,6.664609,0.090866,0.022296,0.162261,1
161.8,1.132523,7.048179,6.884151,0.045998,0.052076,0.129167,1
161.9,1.271666,6.6676,6.984649,0.001497,-0.013744,0.016157,1
162.0,0.90353,7.008697,6.10409,-0.001772,-0.023427,-0.032162,0
162.1,0.997448,7.243074,6.905088,-0.064904,-0.035125,-0.041478,0
162.2,1.063729,6.943373,6.654679,-0.034819,-0.010721,0.005253,0
162.3,1.1068,6.843952,7.258747,-0.027245,-0.024435,-0.028619,0
162.4,0.9801,6.860222,6.495796,-0.02645,-0.056536,-0.086346,0
162.5,0.578704,6.961917,6.867042,-0.035216,-0.027886,0.015363,0
162.6,0.791187,6.880562,7.222376,0.038149,0.034667,0.137567,0
162.7,0.862493,6.951628,6.327341,-0.012523,0.038393,0.154671,0
162.8,1.525544,6.566743,7.019585,-0.026023,0.053328,0.08436,0
162.9,1.367199,7.185497,7.241579,-0.010881,-0.023213,-0.137178,0
163.0,1.031426,6.991947,6.478806,-0.117286,-0.167316,-0.22993,0
163.1,0.890728,6.718209,7.512984,0.04893,-0.079871,-0.109253,0
163.2,0.873141,6.891688,7.063612,0.153236,0.060079,0.109009,0
163.3,1.104527,6.935955,6.788438,0.093218,0.087384,0.173821,0
163.4,1.817588,6.44088,6.760801,0.003543,0.0748,0.110872,0
163.5,1.170928,6.826962,7.137311,0.027458,0.024312,-0.087445,0
163.6,1.415713,6.812246,6.56447,-0.070647,-0.081551,-0.167011,0
163.7,0.997807,6.641279,7.285666,-0.031643,-0.081642,-0.109559,0
163.8,0.951147,6.814041,7.214001,-0.002841,-0.038026,0.058674,0
163.9,1.250489,6.893124,6.686863,0.045479,0.044074,0.142118,0
164.0,1.444517,6.82418,7.08096,-0.03669,0.024129,0.043371,0
164.1,1.321795,6.800881,6.749076,0.005773,-0.034514,-0.157206,0
164.2,0.698585,7.036095,6.876853,0.013806,-0.044501,-0.080145,0
164.3,0.849931,6.724908,6.836055,0.067195,0.02303,0.088087,0
164.4,0.855434,6.753024,7.003792,0.061575,0.054581,0.164598,0
164.5,1.251446,6.94792,7.34465,0.115576,0.14508,0.195721,0
164.6,1.566342,6.920761,6.938229,0.035827,0.110628,0.108887,0
164.7,1.270828,6.593662,6.690093,0.027947,0.05568,-0.073334,0
164.8,1.345963,7.223932,7.020422,-0.039767,-0.038943,-0.182038,0
164.9,1.010968,6.805905,6.331169,-0.05397,-0.103877,-0.227517,0
165.0,0.793938,7.038488,6.908916,-0.058979,-0.057452,-0.050641,0
165.1,1.088375,6.659106,6.950671,-0.032284,-0.050916,0.047098,0
165.2,1.059303,6.950432,6.769295,-0.019609,-0.032742,-0.002321,0
165.3,1.560599,6.31083,7.649854,-0.032956,-0.033872,-0.003207,0
165.4,0.85005,6.71426,6.921987,-0.007598,-0.062384,-0.025389,0
165.5,0.851127,7.318089,6.506085,0.046426,-0.027611,0.021838,0
165.6,0.871346,6.86094,6.740462,-0.009835,0.029658,0.140927,0
165.7,0.993141,6.982496,6.956055,0.058551,0.106779,0.237168,0
165.8,1.556771,7.011329,6.343014,0.025901,0.157909,0.161635,0
165.9,1.631546,6.809734,6.573204,-0.12202,0.027642,-0.070708,0
166.0,0.969931,7.0477,6.97424,-0.112979,-0.073487,-0.21756,0
166.1,0.796451,7.152745,6.77755,-0.031887,-0.012309,-0.015608,0
166.2,0.723829,6.676693,6.888817,0.03375,0.065088,0.111911,0
166.3,0.942293,7.073782,7.316055,0.012401,0.059712,0.080879,0
166.4,1.230748,6.80447,6.749435,0.041203,0.036316,0.032864,0
166.5,1.244986,6.897909,6.81117,0.00452,0.035277,0.009316,0
166.6,1.015514,6.799804,6.825168,-0.04163,0.022144,0.029047,0
166.7,1.503291,6.927969,7.084101,-0.042455,-0.02096,-0.04738,0
166.8,1.562154,6.693323,6.682795,-0.05846,-0.099327,-0.185092,0
166.9,0.515534,6.916095,7.285188,-0.064721,-0.116919,-0.131183,0
167.0,0.841077,6.547241,7.180741,0.074801,-0.002169,0.148532,0
167.1,1.55366,6.868956,6.803393,0.103389,0.102656,0.221102,0
167.2,1.583809,6.967062,6.906045,0.015211,0.087873,0.084666,0
167.3,1.112902,6.7346,6.902336,-0.019212,-0.000519,-0.071471,0
167.4,1.037408,6.896953,7.026643,-0.026023,0.012401,-0.001527,0
167.5,0.9533,6.961319,6.689136,0.063194,0.090011,0.14673,0
167.6,1.269512,6.957371,6.737112,0.014691,0.156045,0.168446,0
167.7,1.592663,6.971249,6.77779,0.000275,0.064141,-0.126205,0
167.8,1.28028,7.056075,6.71426,-0.036102,-0.004551,-0.195018,0
167.9,1.020987,6.999904,7.417152,0.03417,0.007712,-0.166728,0
168.0,0.941815,6.920641,6.608617,0.009285,-0.035461,-0.241108,0
168.1,0.665205,6.886304,6.855317,-0.027856,-0.099418,-0.174096,0
168.2,0.928894,6.954978,7.043872,0.029199,-0.010568,-0.027519,0
168.3,1.013958,6.891569,6.433941,-0.015852,-0.017501,-0.034666,0
168.4,1.28674,6.929614,7.486783,-0.057544,-0.086224,-0.178281,0
168.5,0.721316,6.627879,6.502615,-0.075442,-0.191873,-0.249996,0
168.6,0.839522,6.953184,7.181698,-0.013073,-0.149906,-0.097524,0
168.7,0.757807,6.559206,6.908677,-0.004062,-0.070616,0.077183,0
168.8,1.047578,6.83438,7.375517,-0.024038,-0.024343,0.134268,0
168.9,0.888934,6.576075,6.918608,0.018601,-0.035308,0.103816,0
169.0,1.441197,6.856035,6.982257,0.032437,-0.010415,0.062736,0
169.1,0.651805,6.802675,6.592466,0.069761,0.025259,0.061789,0
169.2,0.959672,6.938288,7.163363,0.056658,0.060399,0.147104,0
169.3,1.184208,7.256474,6.390153,0.103725,0.085551,0.097708,0
169.4,1.442992,6.744171,6.953064,-0.037568,0.011729,-0.027642,0
169.5,0.957249,7.253363,7.049495,0.006445,-0.000611,-0.051832,0
169.6,1.034298,7.014679,6.90449,0.067837,0.086315,0.064049,0
169.7,1.461297,6.393263,7.100582,0.02474,0.015821,-0.043555,0
169.8,1.056551,6.988239,7.188637,-0.033934,-0.050549,-0.153083,0
169.9,0.878405,7.080602,6.561,-0.010843,-0.047983,-0.081184,0
170.0,0.933321,6.619385,6.932725,0.020739,0.022633,0.037751,0
170.1,1.405544,7.07462,6.593423,-0.00733,0.005131,-0.060811,0
170.2,1.286381,6.732326,7.030232,-0.116248,-0.175593,-0.312152,0
170.3,0.97672,6.814759,7.308578,-0.142522,-0.28367,-0.313221,0
170.4,0.593659,6.925786,6.993024,0.052931,-0.172753,-0.081642,0
170.5,0.835933,6.881399,7.361519,0.077091,-0.027306,0.223546,0
170.6,0.777907,6.452126,6.907002,0.152166,0.122356,0.342909,0
170.7,1.415953,7.054998,6.94098,0.110078,0.054825,0.159741,0
170.8,1.188156,6.993024,6.701937,0.073426,-0.00788,0.040042,0
170.9,0.571167,7.104769,6.772645,0.066981,0.068631,0.208274,0
171.0,1.191745,7.086105,6.856035,0.123395,0.250546,0.465326,0
171.1,1.593141,7.275378,6.545686,0.077855,0.253876,0.289917,0
171.2,1.548395,7.06457,6.399126,0.085429,0.165942,-0.000702,0
171.3,1.169971,7.194021,6.788199,0.017074,0.121409,-0.033903,0
171.4,1.013958,7.242775,6.100501,0.068722,0.121295,-0.005612,0
171.5,1.359961,6.93093,6.798727,-0.015821,0.124342,-0.039523,0
171.6,1.077847,6.949953,6.728139,-0.065485,0.034758,-0.084147,0
171.7,0.925304,7.192227,6.502017,0.013897,0.008094,-0.138636,0
171.8,1.106082,7.170332,6.586484,-0.015669,-0.034514,-0.115545,0
171.9,1.03681,6.94098,6.603114,-0.045601,0.01909,-0.026237,0
172.0,1.16004,6.971369,6.560402,-0.084544,-0.068722,-0.128068,0
172.1,1.110389,7.087899,6.702177,-0.135337,-0.236282,-0.338541,0
172.2,0.221635,7.015906,6.983752,-0.009277,-0.127938,-0.09476,0
172.3,0.498664,6.973044,6.625247,0.018479,0.063927,0.339274,0
172.4,1.139342,6.657072,7.12104,0.086254,0.205128,0.43741,0
172.5,1.716491,6.362515,6.98776,-0.029993,0.093737,0.131214,0
172.6,1.183849,7.252526,6.433941,-0.056963,-0.038698,-0.085582,0
172.7,1.535115,6.808059,7.540263,-0.025504,0.001741,-0.007422,0
172.8,0.788555,6.843832,6.838687,-0.014844,0.021197,0.009804,0
172.9,0.650369,7.14449,6.442555,0.020464,0.054733,0.127854,0
173.0,1.212443,7.174759,6.566025,0.102076,0.178586,0.234664,0
173.1,1.618386,6.855915,6.365626,0.040806,0.155282,0.101343,0
173.2,1.201197,7.203892,7.210023,-0.051312,0.051809,-0.105222,0
173.3,0.734477,7.005227,6.728258,-0.033109,0.06863,0.009713,0
173.4,1.681058,6.72094,6.738587,-0.078165,0.085241,0.024409,0
173.5,1.462463,6.71755,7.050751,-0.090599,0.040126,-0.120226,0
173.6,1.192463,6.936673,6.423293,-0.07871,0.036316,-0.190529,0
173.7,1.846541,6.814998,6.770851,-0.178556,-0.077274,-0.410013,0
173.8,1.2,6.532406,6.955816,-0.246423,-0.348681,-0.750233,0
173.9,0.502373,6.690571,6.903413,-0.238787,-0.521984,-0.853744,0
174.0,0.038165,6.932725,7.769854,-0.154671,-0.458118,-0.535423,0
174.1,-0.35342,6.627281,7.196294,0.099449,-0.28506,-0.094134,0
174.2,0.426521,6.509794,7.593383,0.140285,-0.238604,0.01967,0
174.3,-0.491486,6.900661,6.859026,0.28845,-0.03204,0.412975,0
174.4,0.759841,6.72096,7.095437,0.243491,0.18051,0.674395,0
174.5,1.519921,6.697989,7.629156,0.188513,0.161146,0.43628,0
174.6,1.225574,6.741478,7.715358,0.276684,0.171424,0.252555,0
174.7,0.35665,7.016234,5.671229,0.217498,0.20354,0.355798,0
174.8,1.545285,6.887261,7.355058,0.215696,0.287595,0.411631,0
174.9,1.651407,7.098308,6.272186,0.103664,0.292971,0.373971,0
175.0,1.620778,6.929375,5.900461,0.071593,0.40537,0.214963,0
175.1,1.723191,7.097471,5.778068,-0.274523,-0.084421,-0.234969,0
175.2,1.1001,6.930452,6.879485,-0.305799,-0.322292,-0.57965,0
175.3,0.047258,7.138149,6.165825,-0.21872,-0.20519,-0.097219,0
175.4,0.071545,6.770851,5.644788,-0.08717,0.153022,0.450818,0
175.5,1.67354,6.761997,8.617272,-0.122173,0.19172,0.586247,0
175.6,1.961517,6.655397,6.403792,-0.024373,0.168599,0.105283,0
175.7,1.524348,7.349435,6.84778,0.133657,0.170676,-0.198714,0
175.8,1.077847,6.405586,7.551868,0.036438,0.03711,-0.238909,0
175.9,0.921685,7.04462,6.453293,0.180702,0.011836,-0.168751,0
176.0,1.159322,7.599605,6.398647,0.022846,0.06524,-0.129839,0
176.1,1.638366,7.100941,6.911309,-0.113651,-0.183778,-0.520121,0
176.2,1.03334,6.087819,7.505327,-0.282128,-0.507232,-0.671463,0
176.3,-0.734238,7.626284,6.702057,0.04273,-0.339855,-0.266215,0
176.4,0.754936,6.216194,7.925866,0.152777,-0.043982,0.345841,0
176.5,0.426162,6.739624,6.245626,0.235183,0.191628,0.670516,0
176.6,2.256192,6.301738,8.40479,0.085918,0.243735,0.605886,0
176.7,1.766501,6.647261,6.03434,0.02813,0.102717,0.004368,0
176.8,1.339023,6.828876,7.042795,-0.025381,-0.072602,-0.178617,0
176.9,0.531566,6.755776,7.206943,0.032437,-0.003818,0.057269,0
177.0,1.027957,6.926623,7.5545,0.129167,0.23222,0.416152,0
177.1,2.01042,6.261269,6.712167,0.120378,0.373429,0.504689,0
177.2,1.763311,6.928219,6.538288,-0.03179,0.2221,0.133092,0
177.3,1.858924,6.785596,7.210173,-0.250149,0.046082,-0.290237,0
177.4,1.320958,6.655038,6.183772,-0.134329,-0.104214,-0.491929,0
177.5,0.937867,6.622376,7.734201,-0.198164,-0.157695,-0.445442,0
177.6,0.79693,6.976873,7.505806,-0.076389,-0.221164,-0.348346,0
177.7,0.806501,6.656593,6.865248,0.039126,-0.090744,-0.074037,0
177.8,0.878285,6.966105,6.36766,0.068997,0.04609,0.092607,0
177.9,1.282433,6.679325,7.34788,-0.033659,-0.033475,-0.080726,0
178.0,0.69691,7.002356,6.912027,-0.056658,-0.184115,-0.23952,0
178.1,0.44339,6.549754,7.313423,-0.008613,-0.059223,0.08604,0
178.2,0.985963,6.886185,6.809136,0.087689,0.085613,0.199386,0
178.3,1.519203,6.655636,6.828877,0.090316,0.070769,0.088606,0
178.4,1.233739,6.707441,6.674779,-0.104336,-0.030727,-0.022999,0
178.5,1.38365,6.48769,7.424929,-0.036079,-0.042378,-0.055207,0
178.6,0.570688,7.103692,6.886544,-0.004948,-0.019212,-0.000825,0
178.7,0.919323,6.671668,6.523553,0.009621,0.057543,0.127579,0
178.8,1.601995,6.622376,7.538707,0.068325,0.083597,0.044074,0
178.9,1.588954,7.110392,6.729934,-0.04893,-0.028222,-0.130694,0
179.0,1.015036,6.649654,6.953303,0.023091,0.018815,-0.231273,0
179.1,1.124148,6.672027,7.282915,-0.079932,-0.043463,-0.149142,0
179.2,0.558006,6.805546,6.952227,-0.069669,-0.190895,-0.283777,0
179.3,0.522832,6.683154,7.407461,0.00956,-0.055192,0.033078,0
179.4,1.383051,6.38417,7.312825,0.057421,-0.003451,0.044623,0
179.5,1.020898,6.66102,7.182177,-0.067806,-0.1715,-0.154335,0
179.6,-0.084826,6.791549,7.039924,0.090652,0.024954,0.203265,0
179.7,1.27702,6.674629,7.252047,0.166041,0.227967,0.462157,0
179.8,2.131606,6.259824,6.965706,0.077096,0.128765,0.009443,0
179.9,1.068694,6.707979,7.34791,-0.076816,-0.133283,-0.297224,0
180.0,0.518046,6.741897,7.458428,-0.035277,-0.129962,-0.147188,0
180.1,0.566381,6.775517,6.972924,0.074678,-0.001191,0.071746,0
180.2,0.771925,6.483712,7.692207,0.044227,0.024404,0.260106,0
180.3,0.630629,6.552266,6.346364,0.062644,0.177884,0.483225,0
180.4,1.298944,6.650372,7.388319,0.16811,0.309006,0.445595,0
180.5,1.391905,6.719884,7.222974,0.071379,0.270766,0.314473,0
180.6,1.503052,6.52439,7.158009,-0.018265,0.208335,0.149326,0
180.7,2.226761,6.502854,7.411529,-0.091813,0.019792,-0.120065,0
180.8,1.307079,6.567341,6.772645,-0.084757,-0.050213,-0.299507,0
180.9,0.842573,6.802197,7.261618,0.007827,0.004085,-0.113888,0
181.0,1.590389,6.491249,7.041718,-0.035491,0.008002,-0.033078,0
181.1,1.774757,6.416234,7.103931,-0.063744,-0.151831,-0.34743,0
181.2,0.599761,6.998408,7.078807,-0.07422,-0.277882,-0.463158,0
181.3,0.611366,6.937391,7.110033,-0.03934,-0.144683,-0.056444,0
181.4,0.330808,6.967421,6.497112,0.062094,-0.011851,0.184542,0
181.5,0.538505,6.820143,7.488578,0.143217,0.052046,0.316336,0
181.6,0.227917,7.049016,6.336434,0.163712,0.219942,0.550633,0
181.7,1.755016,6.813802,6.776354,0.014966,0.190865,0.528764,0
181.8,1.41021,6.934041,6.280681,-0.033231,-0.017043,0.084269,0
181.9,0.861656,7.156334,7.371928,-0.038637,0.064385,0.278585,0
182.0,1.13025,6.811289,6.959525,0.158733,0.345994,0.566058,0
182.1,1.325474,6.918248,6.530611,0.259388,0.41325,0.55898,0
182.2,1.693759,7.063014,6.887142,0.186894,0.380752,0.428339,0
182.3,2.362314,6.647142,6.527381,0.010354,0.203204,0.090194,0
182.4,1.432702,7.068877,7.002954,-0.041905,0.061209,-0.116889,0
182.5,1.367857,7.00451,6.39781,0.038423,0.117255,0.010323,0
182.6,1.691486,6.701937,6.682795,0.039737,0.112216,0.037171,0
182.7,0.876132,6.920043,6.980342,0.019975,0.140315,0.121226,0
182.8,1.121516,6.633622,6.997451,0.111238,0.28509,0.381332,0
182.9,1.097468,6.965746,6.974001,0.116767,0.25864,0.382065,0
183.0,1.651526,6.271828,7.040402,0.079565,0.291413,0.356928,2
183.1,1.694477,6.47438,6.980342,0.074495,0.278066,0.341473,2
183.2,1.666242,6.449375,7.031908,-0.068478,0.131672,0.116889,2
183.3,1.497758,6.65444,6.949505,0.08533,0.061278,0.00504,2
183.4,1.174158,6.693443,7.792227,0.002413,0.081153,0.255036,2
183.5,1.14353,6.702296,7.075337,0.198897,0.259434,0.527177,2
183.6,1.955295,6.51099,7.143772,0.087231,0.35421,0.567249,2
183.7,1.291406,6.972446,6.852924,0.324155,0.435089,0.537836,2
183.8,2.060818,6.590791,6.769893,0.27269,0.445504,0.515723,2
183.9,2.224488,6.877571,6.869794,0.128617,0.327607,0.306013,2
184.0,2.135834,6.281877,6.64104,0.021289,0.194927,0.166888,2
184.1,1.352423,6.966105,6.882715,0.129381,0.351339,0.318749,2
184.2,2.638446,5.939704,8.056395,0.181946,0.487256,0.479529,2
184.3,2.91374,7.085865,7.555936,0.15516,0.35589,0.139155,2
184.4,2.876053,6.589475,7.971449,0.123211,0.228647,-0.224859,2
184.5,-0.157628,6.440133,3.901198,0.073037,0.036843,-0.398551,2
184.6,0.579063,6.204948,5.339584,-0.178342,0.046365,0.139338,2
184.7,2.260978,6.899106,6.645108,0.062613,0.27211,0.449047,2
184.8,1.855395,7.667322,8.020861,-0.106229,0.259587,0.247858,2
184.9,1.377309,6.502974,7.691369,-0.047495,0.263924,0.165819,2
185.0,2.362673,4.720321,7.654161,-0.082955,0.21985,0.226295,2
185.1,0.947438,6.810452,5.744689,0.087995,0.151464,-0.068753,2
185.2,1.504727,7.146165,7.643872,0.003696,0.057513,0.060293,2
185.3,0.937388,6.498667,6.893004,0.112338,0.202746,0.239551,2
185.4,1.203829,6.73101,7.587401,0.08604,0.288206,0.413647,2
185.5,2.442623,6.409325,7.700552,0.146951,0.375186,0.345406,2
185.6,1.849533,6.215955,6.981778,0.040225,0.198317,-0.051862,2
185.7,1.929931,6.679325,7.154899,-0.051557,-0.050091,-0.365022,2
185.8,1.041835,7.014321,7.137551,0.063896,0.075106,-0.080359,2
185.9,1.424089,6.628118,7.140183,0.067684,0.094043,0.071502,2
186.0,1.786841,6.64116,7.309356,0.028802,0.091385,0.006903,2
186.1,1.045903,6.731967,6.825646,-0.104214,0.017868,-0.013867,2
186.2,1.365255,6.623034,7.148408,0.001145,0.058758,-0.006681,2
186.3,1.280997,6.696075,7.059425,0.030818,0.075106,0.004856,2
186.4,1.512144,6.471867,7.232307,0.000916,0.010476,-0.090561,2
186.5,0.904487,6.687939,7.096633,-0.071105,-0.099204,-0.137658,2
186.6,0.7535,6.828877,7.199046,0.022785,-0.026023,0.06243,2
186.7,1.055833,6.561,6.709116,0.014661,0.120676,0.27101,2
186.8,1.72714,6.800402,7.04435,0.101373,0.170462,0.147249,2
186.9,1.648894,6.586603,7.494201,-0.019914,0.025351,-0.053695,2
187.0,1.245823,6.748597,7.154181,-0.03598,-0.043585,-0.071044,2
187.1,0.860579,6.74764,6.283432,-0.178189,-0.111269,0.024251,2
187.2,1.645425,6.626922,7.402795,0.032284,0.078374,0.079382,2
187.3,1.800958,6.465885,7.377192,-0.033903,0.01124,-0.115453,2
187.4,1.259971,6.839285,6.745516,-0.002405,-0.128396,-0.27256,2
187.5,0.646182,6.614719,7.092804,-0.02645,-0.046181,-0.077275,2
187.6,1.002234,6.952466,7.124629,0.053084,0.012034,0.127579,2
187.7,1.098425,6.73424,7.187561,0.022663,0.119821,0.205037,2
187.8,1.115654,6.632904,7.079525,0.02532,0.140499,0.161727,2
187.9,1.418465,6.575118,6.920163,0.025748,0.132985,0.102809,2
188.0,1.401476,6.989913,7.80802,0.017043,0.08097,-0.042241,0
188.1,0.846581,6.309275,6.788438,0.005314,0.011943,-0.091844,0
188.2,1.133241,6.779943,6.937989,0.021044,0.023824,0.039034,0
188.3,1.090768,6.775277,5.786802,0.074984,0.054794,-0.015974,0
188.4,1.758964,6.674181,7.434619,-0.224065,-0.078527,-0.113834,0
188.5,1.209572,6.922316,7.190193,-0.122051,-0.102473,-0.22715,0
188.6,1.163032,6.471149,7.599246,-0.104916,-0.136528,-0.15238,0
188.7,0.974178,6.529714,7.193124,-0.009125,-0.07151,0.008094,0
188.8,0.841556,7.005946,7.162077,0.193614,0.017135,0.054978,0
188.9,1.248934,6.542695,6.573921,0.045234,0.001038,0.04835,0
189.0,1.640998,6.644869,7.639445,-0.047525,-0.073609,-0.098136,0
189.1,0.651446,7.150831,7.046743,0.001252,-0.11188,-0.118294,0
189.2,0.529412,6.555377,6.816434,0.056505,0.011148,0.136925,0
189.3,1.293201,6.78437,7.232187,0.030055,0.096058,0.274584,0
189.4,1.642553,6.466603,7.261738,-0.004612,0.084024,0.089828,0
189.5,1.31342,6.683752,6.903533,-0.053878,-0.026878,-0.122631,0
189.6,1.041357,6.598208,7.0678,-0.049052,-0.035003,-0.136437,0
189.7,1.026043,6.755895,7.512506,-0.022846,-0.067378,-0.074831,0
189.8,0.572931,6.777072,6.302844,0.007254,-0.03123,0.059445,0
189.9,1.197807,6.679465,7.248159,0.010461,0.039223,0.13042,0
190.0,1.101536,6.803393,6.836414,0.03882,0.049907,0.074281,0
190.1,1.064058,6.672984,7.192825,-0.028367,-0.005918,0.011797,0
190.2,0.85699,6.638049,7.195577,-0.048106,-0.041966,0.030818,0
190.3,1.493002,6.795496,7.107162,0.023702,0.065454,0.151953,0
190.4,1.576272,6.584211,6.785327,0.028772,0.073273,0.076114,0
190.5,1.424806,6.762715,6.996135,0.018906,0.005926,-0.071196,0
190.6,1.336032,6.695237,6.852446,-0.003696,-0.023518,-0.099479,0
190.7,0.852323,6.922197,7.30792,0.018814,-0.019914,-0.040012,0
190.8,0.915853,6.888219,7.084669,0.034941,0.058399,0.147799,0
190.9,1.139462,6.9009,6.806025,0.03934,0.109711,0.192117,0
191.0,1.506401,6.575477,7.041838,0.006903,0.088606,0.036316,0
191.1,1.371566,6.538388,7.174879,-0.035155,0.03992,-0.02584,0
191.2,1.228415,6.631259,6.495915,-0.016074,0.000611,-0.047991,0
191.3,0.704926,6.928538,7.485826,0.002413,0.002474,0.003238,0
191.4,1.015035,6.805427,6.66102,0.042303,0.080543,0.139125,0
191.5,1.517289,6.670831,7.345008,-0.006658,0.07535,0.072754,0
191.6,1.194856,6.953782,6.729574,-0.017898,0.019395,-0.074678,0
191.7,1.265444,6.707321,7.345846,0.014233,-0.011912,-0.131061,0
191.8,0.923989,6.965746,6.848258,-0.003879,-0.004704,-0.07587,0
191.9,0.901974,6.503931,7.07115,0.058368,0.014813,0.069486,0
192.0,1.392862,6.77097,7.018388,-0.001863,0.037171,0.14618,0
192.1,1.470748,6.771209,6.760801,0.022235,0.045112,0.008491,0
192.2,1.051526,6.898867,6.862017,-0.026786,0.040714,-0.04667,0
192.3,0.983211,6.783293,7.122954,0.008827,0.061025,-0.037263,0
192.4,1.417299,6.808777,6.218348,-0.037645,0.083994,0.034972,0
