Timestamp,AccX,AccY,AccZ,GyroX,GyroY,GyroZ,Label
0.0,1.427319,6.642356,7.31103,0.018143,0.107787,0.161971,0
0.1,1.59362,6.855078,7.109196,-0.044715,-0.068631,-0.209618,0
0.2,0.36658,7.175238,6.631588,-0.0405,-0.181885,-0.294773,0
0.3,0.777308,7.635018,8.905248,0.423421,0.022205,0.043615,0
0.4,-1.195514,4.159174,-2.811866,0.320017,0.684703,0.188986,0
0.5,1.637488,8.053144,9.913863,-0.279216,0.669762,0.678187,0
0.6,1.895714,6.747012,6.982406,0.630947,0.456736,0.414281,0
0.7,2.007339,6.648817,6.140222,-0.338236,-0.023274,0.033873,0
0.8,1.221656,7.748199,6.735437,-0.163223,-0.083536,-0.332035,0
0.9,0.479881,6.616873,6.652406,0.551183,-0.029749,-0.284999,0
1.0,1.406381,5.653044,6.718926,-0.343489,0.072968,0.420825,0
1.1,1.496112,6.912027,8.277013,-0.003452,0.099724,0.219789,0
1.2,-0.059462,7.499465,5.676852,0.013439,0.231854,0.315267,0
1.3,2.307279,6.273862,-2.118246,1.16666,0.457171,0.220583,0
1.4,1.769612,7.03454,10.32826,-0.372291,-0.300423,0.194224,0
1.5,0.834497,7.299904,5.390312,0.131703,0.309678,0.067989,0
1.6,2.360639,6.353662,7.809216,0.1175,0.255189,-0.047403,0
1.7,2.424528,3.771537,7.519894,-0.104687,-0.062614,-0.418671,0
1.8,2.151267,6.590551,5.549434,-0.612758,-0.266337,-0.41383,0
1.9,0.219302,7.93795,8.678648,-0.241963,-0.425437,-0.759824,0
2.0,0.053958,6.547959,6.512426,-0.015577,-0.190437,-0.190009,0
2.1,1.102134,6.990392,7.368937,-0.012889,-0.069119,0.099021,0
2.2,0.479881,7.018866,6.627042,0.067898,0.092424,0.29517,0
2.3,1.365703,7.049974,6.670831,0.076755,0.121531,0.203327,0
2.4,1.248336,6.822655,6.685547,0.024771,-0.00846,-0.166552,0
2.5,0.898744,6.763911,7.225606,-0.052443,-0.105557,-0.201127,0
2.6,0.599402,6.953543,6.870392,-0.056444,-0.179442,-0.197309,0
2.7,-0.030867,7.108358,7.156813,0.059559,-0.007055,0.18497,0
2.8,1.164348,6.578827,8.099705,0.208305,0.243124,0.489914,0
2.9,1.135843,6.52762,4.77069,0.160963,0.156954,0.248737,0
3.0,1.311985,6.606942,7.860662,-0.122936,-0.15458,-0.108398,0
3.1,-0.148236,7.089455,6.907122,0.057757,0.053023,0.244285,0
3.2,1.397169,6.670472,7.019943,0.194102,0.323392,0.596998,0
3.3,1.890928,6.769415,7.433303,0.001833,0.103939,0.162093,0
3.4,0.865963,6.335357,6.405108,0.011026,0.040134,0.051404,0
3.5,1.017309,7.245826,7.182177,0.130664,0.222691,0.365328,0
3.6,2.193142,6.489814,7.023413,0.156809,0.379255,0.454178,0
3.7,2.067757,6.544609,6.992665,0.023854,0.248988,0.082956,0
3.8,1.873341,6.703014,6.641877,-0.098655,0.049144,-0.221225,0
3.9,1.730131,6.718448,6.795497,-0.077336,-0.023793,-0.31261,0
4.0,1.878366,6.69108,7.345517,-0.11217,-0.106214,-0.351934,2
4.1,0.91346,6.598807,7.149873,-0.095051,-0.189063,-0.40424,2
4.2,0.699303,6.972207,7.111947,0.056413,-0.07987,-0.033139,2
4.3,0.360239,6.795975,7.075936,0.100854,0.014447,0.197798,2
4.4,0.327099,7.079285,6.836653,0.11863,0.108978,0.396695,2
4.5,0.474018,6.941459,7.018029,0.19398,0.280998,0.646478,2
4.6,1.4735,6.728139,6.955935,0.189429,0.330508,0.515906,2
4.7,1.467398,6.708877,6.719166,0.020158,0.111941,0.209863,2
4.8,0.598086,7.086105,7.164111,0.065149,0.118446,0.240864,2
4.9,1.199881,6.809854,6.895158,0.175349,0.326019,0.599961,2
5.0,2.028515,6.744888,6.569016,0.206655,0.358089,0.504727,2
5.1,2.226163,6.957012,6.990152,0.045021,0.189582,0.12312,2
5.2,0.641516,7.051768,6.716533,0.0281,0.129442,0.105771,2
5.3,1.306481,6.938887,6.795616,0.15997,0.368733,0.557681,2
5.4,2.330011,6.841798,6.872187,0.165117,0.37504,0.407447,2
5.5,1.910549,6.929136,6.905806,0.0062,0.127151,0.002382,2
5.6,1.359602,6.704211,7.448617,0.038118,0.133016,0.123883,2
5.7,1.275374,6.981778,6.36419,0.141934,0.209496,0.354149,2
5.8,1.315454,6.895756,7.237929,0.154488,0.366397,0.533468,2
5.9,1.934477,6.809375,7.353024,0.22715,0.481911,0.575862,2
6.0,1.89033,6.81452,5.829155,0.204059,0.469266,0.42058,2
6.1,2.505884,6.95103,6.738667,0.124219,0.363953,0.099449,2
6.2,1.650808,6.863453,6.265008,-0.036102,0.216001,-0.070402,2
6.3,1.406262,7.243672,6.315856,-0.073029,0.164323,-0.006475,2
6.4,1.57672,6.726075,6.743273,0.000267,0.313832,0.193873,2
6.5,1.825604,6.982137,6.63446,-0.001558,0.314779,0.165391,2
6.6,1.766621,6.539345,6.675856,-0.076114,0.126021,-0.152686,2
6.7,1.66349,7.017431,7.114579,-0.120554,0.003818,-0.279165,2
6.8,0.745963,6.745128,7.226803,-0.086468,-0.030696,-0.089614,2
6.9,1.08024,7.049973,6.892167,0.176448,0.158336,0.121409,2
7.0,1.636691,6.91107,7.290093,0.068081,0.109956,0.092882,2
7.1,1.267957,6.706005,6.583493,0.04215,-0.00446,-0.054397,2
7.2,1.106322,7.075816,6.681957,0.088178,-0.023366,-0.022724,2
7.3,1.070788,6.846344,7.145806,0.152228,0.053176,0.113102,2
7.4,0.344417,6.793074,7.119694,0.141377,0.123738,0.407523,2
7.5,1.314856,6.510511,7.542775,0.196607,0.298255,0.689483,2
7.6,1.588714,6.651449,7.238049,0.169393,0.369115,0.610712,2
7.7,2.073142,6.532765,7.007262,0.130725,0.343581,0.457935,2
7.8,1.46034,6.74429,6.683154,0.149081,0.336709,0.319268,2
7.9,1.440719,6.935716,6.77779,0.188879,0.415968,0.458942,2
8.0,1.672104,6.838687,7.171409,0.197035,0.520182,0.514623,2
8.1,2.268037,7.138747,6.426763,0.206228,0.555032,0.408149,2
8.2,2.286581,6.814879,6.753862,0.05846,0.408485,0.091844,2
8.3,2.549313,6.59438,6.19765,-0.061575,0.286098,-0.180724,2
8.4,2.091088,6.788438,6.873024,-0.163376,0.068264,-0.537225,2
8.5,1.313899,6.845985,6.510392,-0.241811,-0.210321,-0.738627,2
8.6,0.64355,6.969335,7.171648,-0.106199,-0.133504,-0.355309,2
8.7,1.321137,7.15095,7.193274,-0.013592,-0.002902,-0.031383,2
8.8,1.169372,6.611608,7.031429,-0.015974,-0.040836,-0.086437,2
8.9,1.068635,6.870153,6.94457,0.002566,-0.055711,-0.0832,2
9.0,0.900539,6.62764,6.787481,-0.00339,-0.037721,0.010354,2
9.1,0.876491,6.683034,7.405547,0.025259,0.027733,0.134268,2
9.2,0.982373,6.638288,6.946603,0.082039,0.141324,0.270338,2
9.3,1.436172,6.569615,6.992426,0.045754,0.188543,0.315817,2
9.4,1.92371,6.281518,7.238408,-0.105649,-0.043463,-0.123914,2
9.5,1.328017,6.632545,7.116973,-0.046975,-0.140896,-0.26313,2
9.6,0.915613,6.857351,7.143772,0.00898,0.019181,0.075595,2
9.7,1.146282,6.620581,7.061698,0.06069,0.109161,0.206289,2
9.8,1.42687,6.423532,7.312167,0.003742,0.084185,0.137063,2
9.9,1.7135,6.686862,6.832227,-0.032926,-0.019089,-0.047923,2
10.0,1.4668,6.690213,6.941459,-0.023549,-0.063408,-0.156809,0
10.1,0.8869,6.814998,7.170691,-0.000336,-0.053329,-0.091172,0
10.2,0.769053,6.826125,7.043752,0.106779,0.020281,0.107848,0
10.3,0.410967,7.008338,7.159206,0.140774,0.214261,0.452559,0
10.4,1.48678,6.776354,6.686264,0.181274,0.347215,0.552894,0
10.5,1.988675,6.717371,6.743812,0.098135,0.281517,0.233228,0
10.6,1.671506,7.034061,6.448059,-0.005315,0.116736,-0.143309,0
10.7,1.343929,7.107162,6.948398,-0.132741,-0.083078,-0.31878,0
10.8,0.537667,6.988957,6.547122,0.00449,-0.004032,-0.156656,0
10.9,1.167339,6.650851,7.308996,0.015699,0.13491,0.172539,0
11.0,1.269243,6.888488,6.578767,0.027489,0.174746,0.120493,0
11.1,2.045624,6.798607,6.768816,-0.111849,0.001863,-0.207694,0
11.2,1.191626,6.647381,6.971608,-0.182221,-0.225104,-0.526321,0
11.3,0.827558,7.064211,6.628837,-0.095325,-0.236069,-0.462791,0
11.4,0.912264,7.193423,7.097112,-0.061819,-0.26762,-0.367588,0
11.5,0.450449,6.456673,7.393822,0.022449,-0.08323,0.027275,0
11.6,1.404109,6.51087,6.944689,0.037904,-0.019609,0.071746,0
11.7,1.294038,6.724669,7.25444,-0.014691,-0.144714,-0.215452,0
11.8,1.167817,6.491967,7.532008,0.001161,-0.153052,-0.17092,0
11.9,-0.013639,6.628956,7.197012,0.108764,-0.04838,0.077702,0
12.0,1.317368,6.693921,6.841798,0.085338,0.032009,0.21252,0
12.1,1.050689,6.444709,7.451728,0.047984,-0.023427,0.053481,0
12.2,0.798605,6.516135,7.060262,0.049541,-0.002841,0.131702,0
12.3,1.257727,6.657281,7.17787,0.003627,-0.023594,0.139392,0
12.4,0.803151,6.663891,7.208378,0.067287,0.083444,0.270155,0
12.5,1.253839,6.660063,7.033104,0.135001,0.231609,0.457079,0
12.6,1.355056,6.530611,7.168777,0.086285,0.226264,0.367283,0
12.7,1.544328,6.676693,7.583812,0.081428,0.198989,0.250088,0
12.8,1.514656,6.554061,6.832107,0.033109,0.120371,0.089675,0
12.9,1.377548,6.726823,6.552505,0.072754,0.151678,0.100915,0
13.0,1.430788,6.49424,6.990751,0.15351,0.274462,0.240833,0
13.1,2.098266,6.716892,6.954859,0.032834,0.163864,0.102503,0
13.2,2.35693,6.877092,6.760562,-0.086376,-0.051191,-0.320948,0
13.3,1.488485,7.037441,7.203293,-0.174249,-0.187459,-0.493579,0
13.4,1.138984,6.721339,7.186244,-0.122682,-0.113544,-0.261654,0
13.5,0.518794,6.605088,6.249604,0.054214,0.041119,-0.090256,0
13.6,0.713061,6.715217,6.289415,0.013653,-0.007147,-0.024343,0
13.7,2.365185,6.815596,7.431868,-0.164353,-0.185856,-0.244071,0
13.8,1.282074,6.708637,7.223573,-0.157359,-0.317619,-0.56841,0
13.9,0.817388,6.910831,7.123433,-0.029993,-0.202166,-0.296758,0
14.0,0.370888,6.594141,7.356733,0.044013,0.020861,0.204548,0
14.1,1.746402,6.414081,7.317132,0.061422,0.152778,0.42507,0
14.2,1.607738,6.452964,6.759365,0.008155,0.002627,-0.084085,0
14.3,1.351107,6.677411,7.055357,-0.121654,-0.239764,-0.421069,0
14.4,1.102972,6.678248,7.359126,-0.138605,-0.27272,-0.399047,0
14.5,0.615314,6.660542,7.341539,-0.102503,-0.26371,-0.358303,0
14.6,0.098704,6.701848,7.059574,0.052305,-0.161268,-0.130534,0
14.7,0.325184,6.858428,7.226205,0.118447,0.009224,0.245079,0
14.8,0.319681,6.842276,6.932725,0.183229,0.216399,0.545166,0
14.9,1.361396,6.882835,6.732805,0.179686,0.222507,0.455492,0
15.0,1.255634,7.079286,6.61448,0.056994,0.110841,0.186253,0
15.1,0.562433,6.983453,6.832346,0.101617,0.171164,0.262611,0
15.2,1.651407,7.063612,6.477251,0.085979,0.236466,0.363281,0
15.3,2.075415,6.870871,6.736513,-0.056414,0.066676,-0.043463,0
15.4,1.298705,7.146045,6.479046,-0.108398,-0.054061,-0.257083,0
15.5,1.22357,6.936314,6.704928,-0.112979,-0.156259,-0.339335,0
15.6,0.781017,6.931529,6.98118,-0.060537,-0.040439,-0.121562,0
15.7,1.197309,7.069744,6.498009,-0.016913,-0.006337,-0.07109,0
15.8,1.142214,6.827202,7.345009,-0.107176,-0.121929,-0.243368,0
15.9,0.327099,6.774919,7.096274,-0.001771,-0.085582,-0.102656,0
16.0,0.68004,7.125945,6.594619,0.06634,0.114506,0.246667,1
16.1,1.842952,6.606224,6.583493,0.001405,0.094104,0.114843,1
16.2,1.60702,6.938468,6.5744,-0.104549,-0.083139,-0.315145,1
16.3,0.978664,6.93775,7.043154,-0.146791,-0.235672,-0.521526,1
16.4,0.526421,7.029275,7.085866,-0.125288,-0.238115,-0.415419,1
16.5,0.590668,6.783293,6.945407,-0.027153,-0.117836,-0.161177,1
16.6,1.484747,6.697152,6.918966,-0.074831,-0.103939,-0.155893,1
16.7,1.703211,6.780781,7.198209,-0.123761,-0.273179,-0.548434,1
16.8,0.93356,6.806145,6.681359,-0.15012,-0.367527,-0.672043,1
16.9,0.877268,6.622735,7.827372,-0.133588,-0.403362,-0.686421,1
17.0,0.285224,6.358448,7.524111,-0.077549,-0.343947,-0.45821,1
17.1,0.458943,6.631229,7.219624,0.053695,-0.209588,-0.243735,1
17.2,0.77348,6.352466,7.054878,0.002657,-0.241506,-0.362487,1
17.3,0.529651,6.688777,7.660622,-0.005895,-0.336373,-0.462516,1
17.4,0.187956,6.659106,7.222137,0.010599,-0.338205,-0.415571,1
17.5,-0.131485,6.629195,7.162675,0.10849,-0.20577,-0.120096,1
17.6,0.606461,6.624889,7.236733,0.162826,-0.109772,-0.055405,1
17.7,1.033699,6.629674,7.020781,-0.027367,-0.247156,-0.24343,1
17.8,0.060419,6.935836,7.006065,-0.010629,-0.303966,-0.371009,1
17.9,0.318844,6.612565,7.532127,0.06689,-0.158153,-0.063011,1
18.0,0.163609,6.754639,7.096813,0.054062,-0.112132,-0.018784,1
18.1,0.607777,6.470192,7.34465,0.014508,-0.191323,-0.115117,1
18.2,0.740818,6.596174,7.198089,0.058857,-0.134543,-0.069455,1
18.3,0.949352,6.78102,7.143772,-0.025839,-0.15684,-0.125869,1
18.4,0.557647,6.744889,6.736753,0.022969,-0.202318,-0.250821,1
18.5,0.316571,6.80782,7.314141,0.072418,-0.110506,-0.08604,1
18.6,0.939781,6.73101,6.427839,0.011454,-0.024373,0.074617,1
18.7,1.767817,6.714978,7.719126,-0.089553,-0.198012,-0.35702,1
18.8,-0.077168,7.058827,6.285706,-0.07645,-0.365633,-0.628336,1
18.9,0.274098,6.816195,7.400044,-0.002841,-0.278157,-0.326019,1
19.0,0.32662,6.789395,7.325866,0.035797,-0.12987,-0.034209,1
19.1,1.052842,6.639843,6.982256,0.042089,-0.136528,-0.06857,1
19.2,1.166501,6.969096,6.975317,-0.06805,-0.253601,-0.337289,1
19.3,0.908076,6.836294,7.19447,-0.050473,-0.287106,-0.420848,1
19.4,0.33667,6.514699,7.094719,-0.016921,-0.246942,-0.307937,1
19.5,0.206022,6.877092,7.26114,0.092363,-0.157145,-0.140713,1
19.6,0.814277,6.53767,7.169854,0.079657,-0.140499,-0.099724,1
19.7,0.700379,7.025208,7.289495,-0.052015,-0.196118,-0.166124,1
19.8,0.42688,6.85101,6.639963,0.014661,-0.161116,-0.147371,1
19.9,0.534557,6.796095,6.953662,-0.006048,-0.141171,-0.102442,1
20.0,0.742852,6.806384,6.851967,0.029291,-0.095753,-0.151128,1
20.1,0.847897,6.891568,6.641638,-0.056536,-0.216857,-0.258854,1
20.2,0.592942,6.908199,7.411051,-0.092363,-0.248592,-0.30363,1
20.3,0.535873,6.998887,7.357929,0.016616,-0.210168,-0.199905,1
20.4,0.547957,6.588278,6.978069,0.052504,-0.150334,-0.145661,1
20.5,0.634846,6.585048,7.122984,0.00336,-0.205747,-0.158481,1
20.6,0.484188,6.612685,7.10453,0.053206,-0.125258,-0.063652,1
20.7,0.742852,6.900063,6.842037,0.068661,-0.081887,-0.02025,1
20.8,1.14676,6.77121,7.165068,-0.044837,-0.162918,-0.18778,1
20.9,0.524148,6.719884,6.909993,-0.039645,-0.225592,-0.314046,1
21.0,0.531805,6.953184,7.212805,-0.042364,-0.219697,-0.201219,1
21.1,0.674417,6.841918,7.465128,0.015394,-0.21142,-0.13436,1
21.2,0.247657,6.501778,6.608617,0.015577,-0.17935,-0.031307,1
21.3,0.974238,6.836294,7.232785,0.094348,-0.115973,0.043891,1
21.4,0.822772,6.781619,6.925547,0.089308,-0.040042,0.109436,1
21.5,1.0002,6.498069,6.87793,0.05229,-0.049144,0.09218,1
21.6,0.792503,6.888937,7.21759,0.069516,-0.05678,0.060873,1
21.7,1.096212,6.89088,6.664609,0.090866,0.022296,0.162261,1
21.8,1.132523,7.048179,6.884151,0.045998,0.052076,0.129167,1
21.9,1.271666,6.6676,6.984649,0.001497,-0.013744,0.016157,1
22.0,0.90353,7.008697,6.10409,-0.001772,-0.023427,-0.032162,0
22.1,0.997448,7.243074,6.905088,-0.064904,-0.035125,-0.041478,0
22.2,1.063729,6.943373,6.654679,-0.034819,-0.010721,0.005253,0
22.3,1.1068,6.843952,7.258747,-0.027245,-0.024435,-0.028619,0
22.4,0.9801,6.860222,6.495796,-0.02645,-0.056536,-0.086346,0
22.5,0.578704,6.961917,6.867042,-0.035216,-0.027886,0.015363,0
22.6,0.791187,6.880562,7.222376,0.038149,0.034667,0.137567,0
22.7,0.862493,6.951628,6.327341,-0.012523,0.038393,0.154671,0
22.8,1.525544,6.566743,7.019585,-0.026023,0.053328,0.08436,0
22.9,1.367199,7.185497,7.241579,-0.010881,-0.023213,-0.137178,0
23.0,1.031426,6.991947,6.478806,-0.117286,-0.167316,-0.22993,0
23.1,0.890728,6.718209,7.512984,0.04893,-0.079871,-0.109253,0
23.2,0.873141,6.891688,7.063612,0.153236,0.060079,0.109009,0
23.3,1.104527,6.935955,6.788438,0.093218,0.087384,0.173821,0
23.4,1.817588,6.44088,6.760801,0.003543,0.0748,0.110872,0
23.5,1.170928,6.826962,7.137311,0.027458,0.024312,-0.087445,0
23.6,1.415713,6.812246,6.56447,-0.070647,-0.081551,-0.167011,0
23.7,0.997807,6.641279,7.285666,-0.031643,-0.081642,-0.109559,0
23.8,0.951147,6.814041,7.214001,-0.002841,-0.038026,0.058674,0
23.9,1.250489,6.893124,6.686863,0.045479,0.044074,0.142118,0
24.0,1.444517,6.82418,7.08096,-0.03669,0.024129,0.043371,0
24.1,1.321795,6.800881,6.749076,0.005773,-0.034514,-0.157206,0
24.2,0.698585,7.036095,6.876853,0.013806,-0.044501,-0.080145,0
24.3,0.849931,6.724908,6.836055,0.067195,0.02303,0.088087,0
24.4,0.855434,6.753024,7.003792,0.061575,0.054581,0.164598,0
24.5,1.251446,6.94792,7.34465,0.115576,0.14508,0.195721,0
24.6,1.566342,6.920761,6.938229,0.035827,0.110628,0.108887,0
24.7,1.270828,6.593662,6.690093,0.027947,0.05568,-0.073334,0
24.8,1.345963,7.223932,7.020422,-0.039767,-0.038943,-0.182038,0
24.9,1.010968,6.805905,6.331169,-0.05397,-0.103877,-0.227517,0
25.0,0.793938,7.038488,6.908916,-0.058979,-0.057452,-0.050641,0
25.1,1.088375,6.659106,6.950671,-0.032284,-0.050916,0.047098,0
25.2,1.059303,6.950432,6.769295,-0.019609,-0.032742,-0.002321,0
25.3,1.560599,6.31083,7.649854,-0.032956,-0.033872,-0.003207,0
25.4,0.85005,6.71426,6.921987,-0.007598,-0.062384,-0.025389,0
25.5,0.851127,7.318089,6.506085,0.046426,-0.027611,0.021838,0
25.6,0.871346,6.86094,6.740462,-0.009835,0.029658,0.140927,0
25.7,0.993141,6.982496,6.956055,0.058551,0.106779,0.237168,0
25.8,1.556771,7.011329,6.343014,0.025901,0.157909,0.161635,0
25.9,1.631546,6.809734,6.573204,-0.12202,0.027642,-0.070708,0
26.0,0.969931,7.0477,6.97424,-0.112979,-0.073487,-0.21756,0
26.1,0.796451,7.152745,6.77755,-0.031887,-0.012309,-0.015608,0
26.2,0.723829,6.676693,6.888817,0.03375,0.065088,0.111911,0
26.3,0.942293,7.073782,7.316055,0.012401,0.059712,0.080879,0
26.4,1.230748,6.80447,6.749435,0.041203,0.036316,0.032864,0
26.5,1.244986,6.897909,6.81117,0.00452,0.035277,0.009316,0
26.6,1.015514,6.799804,6.825168,-0.04163,0.022144,0.029047,0
26.7,1.503291,6.927969,7.084101,-0.042455,-0.02096,-0.04738,0
26.8,1.562154,6.693323,6.682795,-0.05846,-0.099327,-0.185092,0
26.9,0.515534,6.916095,7.285188,-0.064721,-0.116919,-0.131183,0
27.0,0.841077,6.547241,7.180741,0.074801,-0.002169,0.148532,0
27.1,1.55366,6.868956,6.803393,0.103389,0.102656,0.221102,0
27.2,1.583809,6.967062,6.906045,0.015211,0.087873,0.084666,0
27.3,1.112902,6.7346,6.902336,-0.019212,-0.000519,-0.071471,0
27.4,1.037408,6.896953,7.026643,-0.026023,0.012401,-0.001527,0
27.5,0.9533,6.961319,6.689136,0.063194,0.090011,0.14673,0
27.6,1.269512,6.957371,6.737112,0.014691,0.156045,0.168446,0
27.7,1.592663,6.971249,6.77779,0.000275,0.064141,-0.126205,0
27.8,1.28028,7.056075,6.71426,-0.036102,-0.004551,-0.195018,0
27.9,1.020987,6.999904,7.417152,0.03417,0.007712,-0.166728,0
28.0,0.941815,6.920641,6.608617,0.009285,-0.035461,-0.241108,0
28.1,0.665205,6.886304,6.855317,-0.027856,-0.099418,-0.174096,0
28.2,0.928894,6.954978,7.043872,0.029199,-0.010568,-0.027519,0
28.3,1.013958,6.891569,6.433941,-0.015852,-0.017501,-0.034666,0
28.4,1.28674,6.929614,7.486783,-0.057544,-0.086224,-0.178281,0
28.5,0.721316,6.627879,6.502615,-0.075442,-0.191873,-0.249996,0
28.6,0.839522,6.953184,7.181698,-0.013073,-0.149906,-0.097524,0
28.7,0.757807,6.559206,6.908677,-0.004062,-0.070616,0.077183,0
28.8,1.047578,6.83438,7.375517,-0.024038,-0.024343,0.134268,0
28.9,0.888934,6.576075,6.918608,0.018601,-0.035308,0.103816,0
29.0,1.441197,6.856035,6.982257,0.032437,-0.010415,0.062736,0
29.1,0.651805,6.802675,6.592466,0.069761,0.025259,0.061789,0
29.2,0.959672,6.938288,7.163363,0.056658,0.060399,0.147104,0
29.3,1.184208,7.256474,6.390153,0.103725,0.085551,0.097708,0
29.4,1.442992,6.744171,6.953064,-0.037568,0.011729,-0.027642,0
29.5,0.957249,7.253363,7.049495,0.006445,-0.000611,-0.051832,0
29.6,1.034298,7.014679,6.90449,0.067837,0.086315,0.064049,0
29.7,1.461297,6.393263,7.100582,0.02474,0.015821,-0.043555,0
29.8,1.056551,6.988239,7.188637,-0.033934,-0.050549,-0.153083,0
29.9,0.878405,7.080602,6.561,-0.010843,-0.047983,-0.081184,0
30.0,0.933321,6.619385,6.932725,0.020739,0.022633,0.037751,0
30.1,1.405544,7.07462,6.593423,-0.00733,0.005131,-0.060811,0
30.2,1.286381,6.732326,7.030232,-0.116248,-0.175593,-0.312152,0
30.3,0.97672,6.814759,7.308578,-0.142522,-0.28367,-0.313221,0
30.4,0.593659,6.925786,6.993024,0.052931,-0.172753,-0.081642,0
30.5,0.835933,6.881399,7.361519,0.077091,-0.027306,0.223546,0
30.6,0.777907,6.452126,6.907002,0.152166,0.122356,0.342909,0
30.7,1.415953,7.054998,6.94098,0.110078,0.054825,0.159741,0
30.8,1.188156,6.993024,6.701937,0.073426,-0.00788,0.040042,0
30.9,0.571167,7.104769,6.772645,0.066981,0.068631,0.208274,0
31.0,1.191745,7.086105,6.856035,0.123395,0.250546,0.465326,0
31.1,1.593141,7.275378,6.545686,0.077855,0.253876,0.289917,0
31.2,1.548395,7.06457,6.399126,0.085429,0.165942,-0.000702,0
31.3,1.169971,7.194021,6.788199,0.017074,0.121409,-0.033903,0
31.4,1.013958,7.242775,6.100501,0.068722,0.121295,-0.005612,0
31.5,1.359961,6.93093,6.798727,-0.015821,0.124342,-0.039523,0
31.6,1.077847,6.949953,6.728139,-0.065485,0.034758,-0.084147,0
31.7,0.925304,7.192227,6.502017,0.013897,0.008094,-0.138636,0
31.8,1.106082,7.170332,6.586484,-0.015669,-0.034514,-0.115545,0
31.9,1.03681,6.94098,6.603114,-0.045601,0.01909,-0.026237,0
32.0,1.16004,6.971369,6.560402,-0.084544,-0.068722,-0.128068,0
32.1,1.110389,7.087899,6.702177,-0.135337,-0.236282,-0.338541,0
32.2,0.221635,7.015906,6.983752,-0.009277,-0.127938,-0.09476,0
32.3,0.498664,6.973044,6.625247,0.018479,0.063927,0.339274,0
32.4,1.139342,6.657072,7.12104,0.086254,0.205128,0.43741,0
32.5,1.716491,6.362515,6.98776,-0.029993,0.093737,0.131214,0
32.6,1.183849,7.252526,6.433941,-0.056963,-0.038698,-0.085582,0
32.7,1.535115,6.808059,7.540263,-0.025504,0.001741,-0.007422,0
32.8,0.788555,6.843832,6.838687,-0.014844,0.021197,0.009804,0
32.9,0.650369,7.14449,6.442555,0.020464,0.054733,0.127854,0
33.0,1.212443,7.174759,6.566025,0.102076,0.178586,0.234664,0
33.1,1.618386,6.855915,6.365626,0.040806,0.155282,0.101343,0
33.2,1.201197,7.203892,7.210023,-0.051312,0.051809,-0.105222,0
33.3,0.734477,7.005227,6.728258,-0.033109,0.06863,0.009713,0
33.4,1.681058,6.72094,6.738587,-0.078165,0.085241,0.024409,0
33.5,1.462463,6.71755,7.050751,-0.090599,0.040126,-0.120226,0
33.6,1.192463,6.936673,6.423293,-0.07871,0.036316,-0.190529,0
33.7,1.846541,6.814998,6.770851,-0.178556,-0.077274,-0.410013,0
33.8,1.2,6.532406,6.955816,-0.246423,-0.348681,-0.750233,0
33.9,0.502373,6.690571,6.903413,-0.238787,-0.521984,-0.853744,0
34.0,0.038165,6.932725,7.769854,-0.154671,-0.458118,-0.535423,0
34.1,-0.35342,6.627281,7.196294,0.099449,-0.28506,-0.094134,0
34.2,0.426521,6.509794,7.593383,0.140285,-0.238604,0.01967,0
34.3,-0.491486,6.900661,6.859026,0.28845,-0.03204,0.412975,0
34.4,0.759841,6.72096,7.095437,0.243491,0.18051,0.674395,0
34.5,1.519921,6.697989,7.629156,0.188513,0.161146,0.43628,0
34.6,1.225574,6.741478,7.715358,0.276684,0.171424,0.252555,0
34.7,0.35665,7.016234,5.671229,0.217498,0.20354,0.355798,0
34.8,1.545285,6.887261,7.355058,0.215696,0.287595,0.411631,0
34.9,1.651407,7.098308,6.272186,0.103664,0.292971,0.373971,0
35.0,1.620778,6.929375,5.900461,0.071593,0.40537,0.214963,0
35.1,1.723191,7.097471,5.778068,-0.274523,-0.084421,-0.234969,0
35.2,1.1001,6.930452,6.879485,-0.305799,-0.322292,-0.57965,0
35.3,0.047258,7.138149,6.165825,-0.21872,-0.20519,-0.097219,0
35.4,0.071545,6.770851,5.644788,-0.08717,0.153022,0.450818,0
35.5,1.67354,6.761997,8.617272,-0.122173,0.19172,0.586247,0
35.6,1.961517,6.655397,6.403792,-0.024373,0.168599,0.105283,0
35.7,1.524348,7.349435,6.84778,0.133657,0.170676,-0.198714,0
35.8,1.077847,6.405586,7.551868,0.036438,0.03711,-0.238909,0
35.9,0.921685,7.04462,6.453293,0.180702,0.011836,-0.168751,0
36.0,1.159322,7.599605,6.398647,0.022846,0.06524,-0.129839,0
36.1,1.638366,7.100941,6.911309,-0.113651,-0.183778,-0.520121,0
36.2,1.03334,6.087819,7.505327,-0.282128,-0.507232,-0.671463,0
36.3,-0.734238,7.626284,6.702057,0.04273,-0.339855,-0.266215,0
36.4,0.754936,6.216194,7.925866,0.152777,-0.043982,0.345841,0
36.5,0.426162,6.739624,6.245626,0.235183,0.191628,0.670516,0
36.6,2.256192,6.301738,8.40479,0.085918,0.243735,0.605886,0
36.7,1.766501,6.647261,6.03434,0.02813,0.102717,0.004368,0
36.8,1.339023,6.828876,7.042795,-0.025381,-0.072602,-0.178617,0
36.9,0.531566,6.755776,7.206943,0.032437,-0.003818,0.057269,0
37.0,1.027957,6.926623,7.5545,0.129167,0.23222,0.416152,0
37.1,2.01042,6.261269,6.712167,0.120378,0.373429,0.504689,0
37.2,1.763311,6.928219,6.538288,-0.03179,0.2221,0.133092,0
37.3,1.858924,6.785596,7.210173,-0.250149,0.046082,-0.290237,0
37.4,1.320958,6.655038,6.183772,-0.134329,-0.104214,-0.491929,0
37.5,0.937867,6.622376,7.734201,-0.198164,-0.157695,-0.445442,0
37.6,0.79693,6.976873,7.505806,-0.076389,-0.221164,-0.348346,0
37.7,0.806501,6.656593,6.865248,0.039126,-0.090744,-0.074037,0
37.8,0.878285,6.966105,6.36766,0.068997,0.04609,0.092607,0
37.9,1.282433,6.679325,7.34788,-0.033659,-0.033475,-0.080726,0
38.0,0.69691,7.002356,6.912027,-0.056658,-0.184115,-0.23952,0
38.1,0.44339,6.549754,7.313423,-0.008613,-0.059223,0.08604,0
38.2,0.985963,6.886185,6.809136,0.087689,0.085613,0.199386,0
38.3,1.519203,6.655636,6.828877,0.090316,0.070769,0.088606,0
38.4,1.233739,6.707441,6.674779,-0.104336,-0.030727,-0.022999,0
38.5,1.38365,6.48769,7.424929,-0.036079,-0.042378,-0.055207,0
38.6,0.570688,7.103692,6.886544,-0.004948,-0.019212,-0.000825,0
38.7,0.919323,6.671668,6.523553,0.009621,0.057543,0.127579,0
38.8,1.601995,6.622376,7.538707,0.068325,0.083597,0.044074,0
38.9,1.588954,7.110392,6.729934,-0.04893,-0.028222,-0.130694,0
39.0,1.015036,6.649654,6.953303,0.023091,0.018815,-0.231273,0
39.1,1.124148,6.672027,7.282915,-0.079932,-0.043463,-0.149142,0
39.2,0.558006,6.805546,6.952227,-0.069669,-0.190895,-0.283777,0
39.3,0.522832,6.683154,7.407461,0.00956,-0.055192,0.033078,0
39.4,1.383051,6.38417,7.312825,0.057421,-0.003451,0.044623,0
39.5,1.020898,6.66102,7.182177,-0.067806,-0.1715,-0.154335,0
39.6,-0.084826,6.791549,7.039924,0.090652,0.024954,0.203265,0
39.7,1.27702,6.674629,7.252047,0.166041,0.227967,0.462157,0
39.8,2.131606,6.259824,6.965706,0.077096,0.128765,0.009443,0
39.9,1.068694,6.707979,7.34791,-0.076816,-0.133283,-0.297224,0
40.0,0.518046,6.741897,7.458428,-0.035277,-0.129962,-0.147188,0
40.1,0.566381,6.775517,6.972924,0.074678,-0.001191,0.071746,0
40.2,0.771925,6.483712,7.692207,0.044227,0.024404,0.260106,0
40.3,0.630629,6.552266,6.346364,0.062644,0.177884,0.483225,0
40.4,1.298944,6.650372,7.388319,0.16811,0.309006,0.445595,0
40.5,1.391905,6.719884,7.222974,0.071379,0.270766,0.314473,0
40.6,1.503052,6.52439,7.158009,-0.018265,0.208335,0.149326,0
40.7,2.226761,6.502854,7.411529,-0.091813,0.019792,-0.120065,0
40.8,1.307079,6.567341,6.772645,-0.084757,-0.050213,-0.299507,0
40.9,0.842573,6.802197,7.261618,0.007827,0.004085,-0.113888,0
41.0,1.590389,6.491249,7.041718,-0.035491,0.008002,-0.033078,0
41.1,1.774757,6.416234,7.103931,-0.063744,-0.151831,-0.34743,0
41.2,0.599761,6.998408,7.078807,-0.07422,-0.277882,-0.463158,0
41.3,0.611366,6.937391,7.110033,-0.03934,-0.144683,-0.056444,0
41.4,0.330808,6.967421,6.497112,0.062094,-0.011851,0.184542,0
41.5,0.538505,6.820143,7.488578,0.143217,0.052046,0.316336,0
41.6,0.227917,7.049016,6.336434,0.163712,0.219942,0.550633,0
41.7,1.755016,6.813802,6.776354,0.014966,0.190865,0.528764,0
41.8,1.41021,6.934041,6.280681,-0.033231,-0.017043,0.084269,0
41.9,0.861656,7.156334,7.371928,-0.038637,0.064385,0.278585,0
42.0,1.13025,6.811289,6.959525,0.158733,0.345994,0.566058,0
42.1,1.325474,6.918248,6.530611,0.259388,0.41325,0.55898,0
42.2,1.693759,7.063014,6.887142,0.186894,0.380752,0.428339,0
42.3,2.362314,6.647142,6.527381,0.010354,0.203204,0.090194,0
42.4,1.432702,7.068877,7.002954,-0.041905,0.061209,-0.116889,0
42.5,1.367857,7.00451,6.39781,0.038423,0.117255,0.010323,0
42.6,1.691486,6.701937,6.682795,0.039737,0.112216,0.037171,0
42.7,0.876132,6.920043,6.980342,0.019975,0.140315,0.121226,0
42.8,1.121516,6.633622,6.997451,0.111238,0.28509,0.381332,0
42.9,1.097468,6.965746,6.974001,0.116767,0.25864,0.382065,0
43.0,1.651526,6.271828,7.040402,0.079565,0.291413,0.356928,2
43.1,1.694477,6.47438,6.980342,0.074495,0.278066,0.341473,2
43.2,1.666242,6.449375,7.031908,-0.068478,0.131672,0.116889,2
43.3,1.497758,6.65444,6.949505,0.08533,0.061278,0.00504,2
43.4,1.174158,6.693443,7.792227,0.002413,0.081153,0.255036,2
43.5,1.14353,6.702296,7.075337,0.198897,0.259434,0.527177,2
43.6,1.955295,6.51099,7.143772,0.087231,0.35421,0.567249,2
43.7,1.291406,6.972446,6.852924,0.324155,0.435089,0.537836,2
43.8,2.060818,6.590791,6.769893,0.27269,0.445504,0.515723,2
43.9,2.224488,6.877571,6.869794,0.128617,0.327607,0.306013,2
44.0,2.135834,6.281877,6.64104,0.021289,0.194927,0.166888,2
44.1,1.352423,6.966105,6.882715,0.129381,0.351339,0.318749,2
44.2,2.638446,5.939704,8.056395,0.181946,0.487256,0.479529,2
44.3,2.91374,7.085865,7.555936,0.15516,0.35589,0.139155,2
44.4,2.876053,6.589475,7.971449,0.123211,0.228647,-0.224859,2
44.5,-0.157628,6.440133,3.901198,0.073037,0.036843,-0.398551,2
44.6,0.579063,6.204948,5.339584,-0.178342,0.046365,0.139338,2
44.7,2.260978,6.899106,6.645108,0.062613,0.27211,0.449047,2
44.8,1.855395,7.667322,8.020861,-0.106229,0.259587,0.247858,2
44.9,1.377309,6.502974,7.691369,-0.047495,0.263924,0.165819,2
45.0,2.362673,4.720321,7.654161,-0.082955,0.21985,0.226295,2
45.1,0.947438,6.810452,5.744689,0.087995,0.151464,-0.068753,2
45.2,1.504727,7.146165,7.643872,0.003696,0.057513,0.060293,2
45.3,0.937388,6.498667,6.893004,0.112338,0.202746,0.239551,2
45.4,1.203829,6.73101,7.587401,0.08604,0.288206,0.413647,2
45.5,2.442623,6.409325,7.700552,0.146951,0.375186,0.345406,2
45.6,1.849533,6.215955,6.981778,0.040225,0.198317,-0.051862,2
45.7,1.929931,6.679325,7.154899,-0.051557,-0.050091,-0.365022,2
45.8,1.041835,7.014321,7.137551,0.063896,0.075106,-0.080359,2
45.9,1.424089,6.628118,7.140183,0.067684,0.094043,0.071502,2
46.0,1.786841,6.64116,7.309356,0.028802,0.091385,0.006903,2
46.1,1.045903,6.731967,6.825646,-0.104214,0.017868,-0.013867,2
46.2,1.365255,6.623034,7.148408,0.001145,0.058758,-0.006681,2
46.3,1.280997,6.696075,7.059425,0.030818,0.075106,0.004856,2
46.4,1.512144,6.471867,7.232307,0.000916,0.010476,-0.090561,2
46.5,0.904487,6.687939,7.096633,-0.071105,-0.099204,-0.137658,2
46.6,0.7535,6.828877,7.199046,0.022785,-0.026023,0.06243,2
46.7,1.055833,6.561,6.709116,0.014661,0.120676,0.27101,2
46.8,1.72714,6.800402,7.04435,0.101373,0.170462,0.147249,2
46.9,1.648894,6.586603,7.494201,-0.019914,0.025351,-0.053695,2
47.0,1.245823,6.748597,7.154181,-0.03598,-0.043585,-0.071044,2
47.1,0.860579,6.74764,6.283432,-0.178189,-0.111269,0.024251,2
47.2,1.645425,6.626922,7.402795,0.032284,0.078374,0.079382,2
47.3,1.800958,6.465885,7.377192,-0.033903,0.01124,-0.115453,2
47.4,1.259971,6.839285,6.745516,-0.002405,-0.128396,-0.27256,2
47.5,0.646182,6.614719,7.092804,-0.02645,-0.046181,-0.077275,2
47.6,1.002234,6.952466,7.124629,0.053084,0.012034,0.127579,2
47.7,1.098425,6.73424,7.187561,0.022663,0.119821,0.205037,2
47.8,1.115654,6.632904,7.079525,0.02532,0.140499,0.161727,2
47.9,1.418465,6.575118,6.920163,0.025748,0.132985,0.102809,2
48.0,1.401476,6.989913,7.80802,0.017043,0.08097,-0.042241,0
48.1,0.846581,6.309275,6.788438,0.005314,0.011943,-0.091844,0
48.2,1.133241,6.779943,6.937989,0.021044,0.023824,0.039034,0
48.3,1.090768,6.775277,5.786802,0.074984,0.054794,-0.015974,0
48.4,1.758964,6.674181,7.434619,-0.224065,-0.078527,-0.113834,0
48.5,1.209572,6.922316,7.190193,-0.122051,-0.102473,-0.22715,0
48.6,1.163032,6.471149,7.599246,-0.104916,-0.136528,-0.15238,0
48.7,0.974178,6.529714,7.193124,-0.009125,-0.07151,0.008094,0
48.8,0.841556,7.005946,7.162077,0.193614,0.017135,0.054978,0
48.9,1.248934,6.542695,6.573921,0.045234,0.001038,0.04835,0
49.0,1.640998,6.644869,7.639445,-0.047525,-0.073609,-0.098136,0
49.1,0.651446,7.150831,7.046743,0.001252,-0.11188,-0.118294,0
49.2,0.529412,6.555377,6.816434,0.056505,0.011148,0.136925,0
49.3,1.293201,6.78437,7.232187,0.030055,0.096058,0.274584,0
49.4,1.642553,6.466603,7.261738,-0.004612,0.084024,0.089828,0
49.5,1.31342,6.683752,6.903533,-0.053878,-0.026878,-0.122631,0
49.6,1.041357,6.598208,7.0678,-0.049052,-0.035003,-0.136437,0
49.7,1.026043,6.755895,7.512506,-0.022846,-0.067378,-0.074831,0
49.8,0.572931,6.777072,6.302844,0.007254,-0.03123,0.059445,0
49.9,1.197807,6.679465,7.248159,0.010461,0.039223,0.13042,0
50.0,1.101536,6.803393,6.836414,0.03882,0.049907,0.074281,0
