Timestamp,AccX,AccY,AccZ,GyroX,GyroY,GyroZ
1769762629092,1.814358,7.018747,6.528817,-0.005956,0.006720,-0.007483
1769762629100,1.788037,6.981658,6.566504,-0.004429,0.008094,-0.007636
1769762629124,1.808974,7.003194,6.579066,-0.003512,0.008247,-0.007483
1769762629141,1.835893,7.000801,6.561120,-0.003971,0.007789,-0.006872
1769762629164,1.841875,6.990033,6.544370,-0.004887,0.008399,-0.008705
1769762629183,1.852643,6.995417,6.567102,-0.005192,0.008399,-0.009621
1769762629205,1.837090,6.991230,6.559325,-0.006261,0.010079,-0.009010
1769762629223,1.823331,6.988837,6.561718,-0.005192,0.009621,-0.010079
1769762629247,1.773082,7.003792,6.582057,-0.006414,0.010385,-0.010996
1769762629264,1.721038,7.015158,6.576075,-0.006109,0.009468,-0.011301
1769762629286,1.705484,6.988238,6.582057,-0.005650,0.010079,-0.009163
1769762629307,1.735993,7.034300,6.558129,-0.003971,0.009163,-0.008705
1769762629324,1.790430,7.044470,6.527620,-0.005040,0.010843,-0.007789
1769762629346,1.766501,7.048657,6.515656,-0.005192,0.009316,-0.008858
1769762629366,1.709672,7.048059,6.554539,-0.005956,0.010996,-0.009774
1769762629387,1.675574,7.033702,6.571289,-0.005650,0.008399,-0.010232
1769762629409,1.696511,7.019943,6.579066,-0.005650,0.007636,-0.008705
1769762629428,1.756930,7.009774,6.576075,-0.004429,0.007941,-0.007178
1769762629447,1.723431,7.000203,6.602396,-0.005345,0.008399,-0.007330
1769762629468,1.663610,6.959525,6.656833,-0.005192,0.007178,-0.008399
1769762629491,1.615155,6.896115,6.698109,-0.005040,0.004581,-0.008094
1769762629509,1.590629,6.886544,6.731608,-0.003818,0.002596,-0.005650
1769762629528,1.674976,6.896115,6.706484,-0.000305,0.002291,-0.001833
1769762629549,1.744966,6.896713,6.685546,-0.000611,0.000458,0.000458
1769762629570,1.810768,6.903892,6.644270,0.000764,-0.001069,0.000305
1769762629589,1.828117,6.941578,6.623931,0.001222,-0.000916,-0.000458
1769762629611,1.802394,6.961319,6.609574,0.000916,0.000458,-0.000611
1769762629633,1.727020,6.964909,6.623333,0.000764,0.000305,-0.000916
1769762629652,1.585843,6.999604,6.641279,-0.000764,-0.002749,-0.001833
1769762629671,1.523630,6.987640,6.646663,0.000305,-0.001222,-0.000153
1769762629693,1.539183,7.028916,6.614958,0.002902,-0.003054,0.004123
1769762629712,1.648057,7.051050,6.561718,0.003971,-0.004581,0.007178
1769762629732,1.731207,7.061818,6.514460,0.005192,-0.006109,0.008552
1769762629751,1.758126,7.070791,6.507879,0.005192,-0.005650,0.007483
1769762629773,1.734198,7.040881,6.530013,0.003818,-0.007330,0.007483
1769762629792,1.691726,7.043273,6.552146,0.003665,-0.006567,0.007025
1769762629812,1.709672,7.013363,6.575477,0.003971,-0.006109,0.007941
1769762629835,1.792822,7.025926,6.557530,0.005650,-0.005803,0.007941
1769762629853,1.852045,7.010970,6.554539,0.004887,-0.005650,0.008399
1769762629875,1.908874,6.988837,6.547959,0.005040,-0.003818,0.009774
1769762629893,1.923231,6.970293,6.578468,0.003360,-0.000764,0.009621
1769762629915,1.948954,6.966703,6.562914,0.002291,-0.000153,0.005650
1769762629935,1.983052,6.996614,6.527022,-0.000305,0.001985,-0.000000
1769762629953,1.986043,7.015756,6.496513,-0.001222,0.004581,-0.000000
1769762629976,1.949552,7.016354,6.501299,-0.004123,0.008094,-0.003512
1769762629994,1.873580,7.000801,6.533004,-0.003818,0.007636,-0.005650
1769762630017,1.773680,6.994819,6.562316,-0.005345,0.006720,-0.009774
1769762630035,1.749153,7.018747,6.558129,-0.004429,0.007789,-0.009163
1769762630058,1.777269,7.048657,6.532406,-0.003665,0.009774,-0.007941
1769762630077,1.845464,7.052247,6.506085,-0.005192,0.010385,-0.009010
1769762630098,1.858625,7.066604,6.485147,-0.005498,0.010079,-0.010385
1769762630116,1.763510,7.060621,6.507879,-0.007483,0.011148,-0.014050
1769762630138,1.654039,7.022934,6.576075,-0.008094,0.010843,-0.013286
1769762630159,1.623530,7.013363,6.584450,-0.006109,0.011148,-0.011912
1769762630179,1.703690,7.017550,6.579664,-0.005192,0.011301,-0.009163
1769762630199,1.788635,7.038488,6.538388,-0.005803,0.011454,-0.009468
1769762630219,1.808376,7.029515,6.549754,-0.006567,0.010690,-0.011759
1769762630243,1.756930,7.016953,6.573084,-0.006720,0.011606,-0.013286
1769762630260,1.725225,6.984051,6.604789,-0.007330,0.011912,-0.013134
1769762630283,1.755734,6.985248,6.611369,-0.007483,0.014203,-0.011148
1769762630301,1.785046,6.984051,6.602396,-0.007636,0.014355,-0.012370
1769762630323,1.785046,6.965507,6.623931,-0.007636,0.013897,-0.013592
1769762630342,1.721636,6.952346,6.642476,-0.011148,0.014813,-0.014661
1769762630361,1.648057,6.927222,6.678368,-0.009927,0.012981,-0.012981
1769762630383,1.602593,6.924829,6.673583,-0.008399,0.013134,-0.011454
1769762630402,1.560719,6.947560,6.693323,-0.006109,0.011606,-0.010996
1769762630424,1.553540,6.949954,6.671189,-0.005498,0.008858,-0.009163
1769762630443,1.564308,6.945168,6.662815,-0.003971,0.006261,-0.006261
1769762630467,1.610968,7.001997,6.625726,-0.002902,0.006567,-0.004276
1769762630487,1.662413,7.009176,6.605985,-0.002291,0.005650,-0.004429
1769762630507,1.631307,6.975676,6.636494,-0.003054,0.003818,-0.004276
1769762630527,1.664208,6.981658,6.629315,-0.001222,0.002749,-0.004123
1769762630547,1.698904,7.005587,6.607182,-0.002138,0.004429,-0.002596
1769762630567,1.762912,7.042675,6.547361,-0.001527,0.004734,-0.002749
1769762630587,1.798804,7.046863,6.524031,-0.002138,0.005345,-0.003360
1769762630607,1.731207,7.028916,6.550950,-0.003818,0.006109,-0.005345
1769762630627,1.631307,7.022934,6.586843,-0.004429,0.004429,-0.007789
1769762630647,1.517050,6.974480,6.661618,-0.005040,0.005650,-0.007941
1769762630673,1.518246,6.946364,6.696314,-0.003818,0.003818,-0.005498
1769762630693,1.612762,6.929615,6.685546,-0.001069,0.002596,-0.002443
1769762630713,1.749752,6.912865,6.667002,0.000611,0.003054,-0.000153
1769762630734,1.841875,6.911070,6.667002,-0.001069,0.003360,-0.000153
1769762630753,1.832304,6.908079,6.661020,-0.003054,0.003207,-0.005040
1769762630772,1.733600,6.874579,6.708877,-0.003054,0.003512,-0.006109
1769762630791,1.674378,6.926025,6.684350,-0.001833,0.003512,-0.005956
1769762630813,1.703092,6.972685,6.620342,-0.002138,0.005345,-0.003360
1769762630832,1.715056,7.000801,6.591628,-0.001527,0.003971,-0.003054
1769762630851,1.691726,7.054639,6.565307,-0.002291,0.004123,-0.005192
1769762630873,1.635494,7.035497,6.580262,-0.002596,0.004581,-0.005650
1769762630892,1.643271,6.998408,6.594021,-0.003054,0.004429,-0.005803
1769762630914,1.682154,7.003194,6.598208,-0.002443,0.008094,-0.004429
1769762630933,1.719841,7.004988,6.601798,-0.003818,0.007025,-0.006109
1769762630955,1.722234,6.984051,6.602396,-0.003818,0.005956,-0.005956
1769762630975,1.689333,6.982256,6.613163,-0.004429,0.006414,-0.006414
1769762630995,1.649253,6.978069,6.631708,-0.004123,0.007636,-0.006720
1769762631015,1.592423,6.975676,6.659823,-0.003360,0.007025,-0.006567
1769762631035,1.539183,6.966703,6.687341,-0.002749,0.004581,-0.005498
1769762631057,1.530808,6.949355,6.673583,-0.001833,0.005040,-0.004276
1769762631076,1.599004,6.967301,6.640681,-0.000611,0.004276,-0.001069
1769762631095,1.655833,7.033104,6.581459,0.001374,0.008247,0.006261
1769762631117,1.713261,7.046265,6.579664,0.000458,0.009468,0.008247
1769762631136,1.701895,6.999006,6.604789,-0.000305,0.009927,0.005803
1769762631158,1.677369,6.932605,6.639484,-0.000764,0.007941,0.002596
1769762631177,1.601995,6.946364,6.688538,-0.001374,0.003207,-0.004429
1769762631199,1.555335,6.953543,6.701100,-0.001680,0.002596,-0.002138
1769762631219,1.478764,6.943373,6.711867,-0.001222,0.000916,-0.003054
1769762631239,1.479363,6.958328,6.702296,-0.000458,-0.001374,0.000153
1769762631261,1.532005,6.993024,6.656833,0.002749,-0.000916,0.004276
1769762631280,1.588834,7.037889,6.602994,0.003360,0.000916,0.011148
1769762631298,1.604986,7.031908,6.575477,0.006109,0.005803,0.018784
1769762631323,1.570290,7.034300,6.598208,0.006261,0.006872,0.022907
1769762631344,1.576272,7.062416,6.579664,0.006872,0.005192,0.019853
1769762631361,1.684547,7.057631,6.537790,0.005192,0.002291,0.017257
1769762631384,1.779662,7.037292,6.503692,0.005650,0.005345,0.017715
1769762631402,1.778465,7.007381,6.559923,0.005345,0.007789,0.017104
1769762631423,1.755734,6.994819,6.601798,0.003665,0.007483,0.013439
1769762631446,1.786242,6.978667,6.609574,0.000305,0.002138,0.003207
1769762631467,1.811965,6.955935,6.600003,0.000153,0.001527,-0.000764
1769762631484,1.819143,6.950552,6.595217,-0.001680,0.002291,-0.000764
1769762631507,1.782055,7.000801,6.595217,-0.003054,0.004276,-0.005192
1769762631527,1.807179,7.006185,6.570691,-0.003665,0.006872,-0.004734
1769762631549,1.785644,7.016953,6.564111,-0.003665,0.008094,-0.005956
1769762631568,1.763510,6.998408,6.576075,-0.004581,0.008247,-0.008247
1769762631587,1.668994,6.986444,6.601200,-0.005345,0.009621,-0.010843
1769762631609,1.639682,7.009176,6.604190,-0.005803,0.009927,-0.010843
1769762631628,1.698904,6.997810,6.593423,-0.005803,0.010385,-0.011148
1769762631653,1.767099,6.990632,6.592227,-0.006872,0.012217,-0.010232
1769762631668,1.806581,6.972685,6.595816,-0.006261,0.013439,-0.012065
1769762631690,1.799403,6.993622,6.592227,-0.007941,0.014508,-0.014508
1769762631710,1.769492,6.972087,6.617351,-0.010079,0.014966,-0.016493
1769762631732,1.660619,6.942775,6.658627,-0.011148,0.016188,-0.018631
1769762631753,1.590629,6.963114,6.674779,-0.012065,0.017410,-0.019700
1769762631771,1.516451,6.942177,6.704091,-0.010996,0.016341,-0.019090
1769762631794,1.427319,6.941578,6.737590,-0.010537,0.016646,-0.016951
1769762631815,1.381855,6.937989,6.759126,-0.008858,0.012523,-0.015424
1769762631831,1.314258,6.949355,6.778268,-0.006109,0.009316,-0.010996
1769762631853,1.393221,6.932007,6.745367,-0.003665,0.006109,-0.003512
1769762631876,1.472184,6.933204,6.734001,-0.002749,0.005192,-0.002902
1769762631894,1.514058,6.954141,6.694520,-0.002596,0.003665,-0.002902
1769762631913,1.412364,6.939186,6.725626,-0.000305,-0.001833,-0.001222
1769762631934,1.311865,6.941578,6.772884,0.001069,-0.002749,-0.000153
1769762631955,1.281955,6.971489,6.742376,0.001069,-0.005040,0.001222
1769762631974,1.290330,6.933802,6.750153,0.003207,-0.009621,0.004887
1769762631993,1.334597,6.972087,6.737590,0.008247,-0.012981,0.013439
1769762632015,1.396810,6.973882,6.704091,0.009010,-0.016035,0.013592
1769762632035,1.509871,6.962516,6.671189,0.012828,-0.018937,0.020922
1769762632056,1.635494,7.033104,6.585646,0.012217,-0.018326,0.020617
1769762632075,1.563710,7.075577,6.578468,0.009621,-0.021838,0.017868
1769762632097,1.501496,7.129415,6.578468,0.008705,-0.022907,0.016951
1769762632117,1.518246,7.082157,6.562914,0.010385,-0.020617,0.020769
1769762632138,1.592423,7.097710,6.506085,0.011301,-0.020311,0.022755
1769762632158,1.658824,7.115656,6.518049,0.009774,-0.020769,0.021533
1769762632177,1.632503,7.115058,6.477969,0.008552,-0.021075,0.019090
1769762632199,1.533799,7.095317,6.542575,0.007941,-0.020617,0.016951
1769762632218,1.514058,7.098309,6.539584,0.010996,-0.021991,0.020159
1769762632238,1.590629,7.046265,6.544968,0.010996,-0.021991,0.021991
1769762632260,1.678565,7.055238,6.529415,0.013897,-0.019242,0.021686
1769762632281,1.779064,7.032506,6.518049,0.013897,-0.017715,0.020159
1769762632301,1.761716,7.026524,6.549156,0.013439,-0.017562,0.017410
1769762632319,1.708475,6.969096,6.642476,0.013134,-0.017562,0.015577
1769762632338,1.621137,6.945168,6.682556,0.012523,-0.019548,0.014661
1769762632360,1.569093,6.891329,6.757929,0.012217,-0.020464,0.016035
1769762632379,1.641476,6.887142,6.718448,0.014050,-0.024587,0.017410
1769762632401,1.749752,6.911668,6.686145,0.014813,-0.025198,0.017562
1769762632420,1.765903,6.888338,6.716653,0.014508,-0.024129,0.020006
1769762632442,1.792822,6.817750,6.725626,0.014508,-0.024587,0.021686
1769762632461,1.688735,6.715457,6.873981,0.014050,-0.027183,0.016951
1769762632483,1.508076,6.634699,6.972685,0.014966,-0.034056,0.016951
1769762632502,1.504487,6.597012,7.134799,0.017868,-0.040470,0.021991
1769762632524,1.521237,6.528817,7.109076,0.024587,-0.037263,0.038332
1769762632543,1.978864,6.600003,6.970293,0.029169,-0.032987,0.054214
1769762632562,2.172683,6.785447,6.647261,0.033445,-0.021838,0.071471
1769762632584,1.794617,7.086943,6.527022,0.045662,0.009927,0.108734
1769762632603,2.394019,7.451250,5.980262,0.065057,0.056352,0.184481
1769762632626,2.552544,7.146763,6.267401,0.046120,0.066432,0.158061
1769762632644,2.761317,7.200003,5.979065,0.027489,0.026267,0.078038
1769762632667,2.917449,7.294520,5.976673,-0.005345,-0.011454,0.002443
1769762632684,2.622534,7.122237,6.002994,-0.041844,-0.073915,-0.122937
1769762632706,2.970689,7.166504,5.928816,-0.086743,-0.173944,-0.304363
1769762632727,2.641078,7.352546,5.959325,-0.130572,-0.250913,-0.465326
1769762632744,2.217548,7.365108,6.034101,-0.149204,-0.284510,-0.527634
1769762632767,1.459024,7.393822,6.171688,-0.151647,-0.284663,-0.537408
1769762632787,0.985843,7.387840,6.300900,-0.152869,-0.278554,-0.530536
1769762632808,0.796810,7.511070,6.510272,-0.124769,-0.237474,-0.454178
1769762632828,0.470788,7.461419,6.385247,-0.088728,-0.138819,-0.280540
1769762632856,0.313460,7.370492,6.640681,-0.049480,-0.108429,-0.220675
1769762632867,0.230907,7.402197,6.619146,-0.004887,-0.035736,-0.084757
1769762632887,1.542174,7.459625,6.126822,-0.003665,0.002291,-0.004581
1769762632907,2.719443,7.097112,5.953941,0.000305,0.049938,0.058032
1769762632929,3.288337,6.822536,6.451050,-0.052076,-0.040164,-0.065821
1769762632947,1.785046,7.077371,5.968298,-0.085063,-0.157756,-0.332921
1769762632974,1.487738,7.085148,6.638288,-0.155160,-0.277943,-0.500298
1769762632988,1.459622,7.679764,6.077171,-0.135765,-0.308487,-0.561996
1769762633010,0.989432,8.322835,5.626722,-0.142942,-0.259618,-0.512668
1769762633029,0.661017,8.168498,5.699105,-0.098807,-0.143095,-0.360258
1769762633051,2.100300,7.824530,6.082555,-0.084299,-0.078343,-0.230296
1769762633070,1.877768,7.241878,6.327819,-0.082161,-0.061392,-0.221286
1769762633093,1.027717,7.357930,6.224928,-0.101709,-0.064294,-0.286190
1769762633112,1.135394,7.824530,5.921638,-0.075136,-0.037263,-0.234267
1769762633134,0.917647,7.677969,6.016753,-0.081856,-0.027031,-0.223424
1769762633154,1.023530,7.383653,5.983851,-0.077580,-0.010537,-0.199600
1769762633172,1.587040,7.369894,6.135197,-0.092393,-0.025504,-0.199295
1769762633191,1.478166,7.538588,6.214758,-0.092699,-0.023976,-0.227089
1769762633217,1.339383,7.313663,6.513862,-0.103083,-0.009621,-0.219453
1769762633232,0.848256,7.150352,6.289534,-0.091477,0.004276,-0.209679
1769762633254,0.135793,7.380661,6.345766,-0.090408,0.004429,-0.214414
1769762633273,0.623928,7.042077,6.727421,-0.108734,-0.025809,-0.213650
1769762633295,0.469591,7.000801,6.160322,-0.102473,-0.026878,-0.217010
1769762633314,1.073181,7.466205,6.863812,-0.098197,-0.014508,-0.192881
1769762633333,1.162912,7.351948,6.025726,-0.077885,0.014050,-0.150425
1769762633355,0.750748,7.704889,6.314659,-0.073609,0.046578,-0.136681
1769762633375,1.045065,6.539584,6.574878,-0.079260,0.046578,-0.111941
1769762633395,0.997807,6.857830,7.587042,-0.065057,0.034667,-0.133779
1769762633417,0.760918,6.201598,7.910073,-0.084757,0.014661,-0.144317
1769762633435,0.136989,5.454439,7.406384,-0.062766,-0.059559,-0.249691
1769762633458,-0.080758,7.101898,7.628319,-0.063225,-0.086590,-0.271835
1769762633477,1.919044,5.238487,7.896913,-0.080940,-0.124311,-0.320093
1769762633498,1.468595,6.157929,7.964510,-0.102473,-0.144775,-0.336281
1769762633518,1.706681,5.647061,7.909475,-0.097127,-0.166919,-0.385914
1769762633539,1.063011,5.855835,7.543374,-0.105069,-0.172264,-0.396451
1769762633558,-0.046062,6.701100,7.264011,-0.132252,-0.178525,-0.398742
1769762633580,0.145962,6.623931,6.826723,-0.160199,-0.194866,-0.303142
1769762633599,1.648057,7.080362,6.472585,-0.153938,-0.146913,-0.274431
1769762633620,1.010369,6.623931,7.197610,-0.124922,-0.109650,-0.244193
1769762633638,1.025923,6.202196,7.814361,-0.091324,-0.094989,-0.237779
1769762633660,0.416949,6.193821,7.569096,-0.073151,-0.099571,-0.257021
1769762633679,-0.081356,5.766703,8.096115,-0.100793,-0.135765,-0.268628
1769762633700,0.562313,5.377271,8.250452,-0.098502,-0.206167,-0.337656
1769762633722,-0.634098,5.749355,8.291130,-0.122173,-0.316123,-0.486859
1769762633741,-0.774676,6.348757,7.519445,-0.115912,-0.407294,-0.578031
1769762633762,-0.249452,7.288538,6.668199,-0.111941,-0.423177,-0.586125
1769762633781,0.765703,8.184052,6.242276,-0.103847,-0.383012,-0.510683
1769762633800,0.796810,8.158329,6.181259,-0.097433,-0.287565,-0.422413
1769762633823,0.187238,7.336394,6.796215,-0.062461,-0.176998,-0.271988
1769762633841,-0.628714,6.497710,7.363314,0.010996,-0.082161,-0.087354
1769762633864,-1.005584,6.400801,7.639685,0.022144,-0.036805,-0.005956
1769762633882,-0.842872,6.747760,7.722835,0.045968,0.007941,0.102625
1769762633904,0.562912,7.035497,7.027720,0.091324,0.073609,0.233503
1769762633923,0.384048,7.220941,6.879365,0.114995,0.154549,0.343764
1769762633951,-0.232702,6.905686,6.937391,0.143553,0.242208,0.463035
1769762633964,-0.851845,7.038488,7.130611,0.160963,0.286954,0.558483
1769762633987,0.037089,6.848856,6.793822,0.182343,0.313526,0.631176
1769762634006,0.500100,6.962516,6.373283,0.185397,0.318719,0.625831
1769762634024,0.722632,7.195218,6.083153,0.175776,0.317192,0.615141
1769762634047,0.833300,7.649256,6.102894,0.163712,0.323453,0.608269
1769762634065,1.551147,7.787441,6.535397,0.153327,0.318261,0.588721
1769762634087,1.182054,7.935796,5.584250,0.156381,0.312305,0.508698
1769762634107,1.172483,7.462018,6.102296,0.122020,0.301767,0.483041
1769762634128,0.679562,7.563114,5.964110,0.092851,0.268475,0.385914
1769762634147,0.784248,6.781857,6.352346,0.074984,0.247248,0.361632
1769762634169,0.943370,7.243672,6.556932,0.071013,0.212428,0.289397
1769762634188,1.494916,7.080362,7.078568,0.062919,0.145080,0.162490
1769762634211,0.946361,7.408777,4.932804,0.063683,0.127060,0.126449
1769762634229,0.649053,8.088339,6.117849,0.013286,0.101709,0.074373
1769762634248,0.877568,6.902695,6.543772,0.002749,0.098502,0.068417
1769762634274,1.615754,6.946962,8.045268,-0.015272,0.077122,0.029474
1769762634289,1.091127,6.980462,5.389235,0.028100,0.012065,-0.122326
1769762634311,2.143371,7.275377,7.739585,-0.075442,-0.073762,-0.214414
1769762634333,1.521835,7.195218,7.309475,-0.049022,-0.095906,-0.326965
1769762634353,0.332602,6.850053,5.233103,-0.049480,-0.111025,-0.386677
1769762634371,0.425324,6.821339,6.659225,-0.089186,-0.146608,-0.400727
1769762634391,0.157926,6.637690,7.353742,-0.092393,-0.191964,-0.453720
1769762634413,0.392423,7.174281,7.387242,-0.067501,-0.199295,-0.485179
1769762634432,0.838086,6.769295,6.276374,-0.090408,-0.224035,-0.464410
1769762634454,1.668396,6.961319,7.329216,-0.151647,-0.253814,-0.486859
1769762634474,1.201795,6.172884,5.931209,-0.117897,-0.273820,-0.543670
1769762634491,-0.432503,7.513463,6.329614,-0.144928,-0.304058,-0.603840
1769762634514,2.156531,6.934998,10.491929,-0.144928,-0.356898,-0.657138
1769762634533,-0.822533,6.155536,4.167699,-0.193339,-0.330325,-0.797789
1769762634555,1.182054,7.622935,8.218149,-0.142790,-0.450360,-0.809549
1769762634574,0.525823,6.343971,6.948159,-0.195477,-0.472504,-0.826042
1769762634596,-1.922633,6.512665,4.979464,-0.193644,-0.525955,-0.788321
1769762634615,1.238286,6.908677,8.631510,-0.176234,-0.533132,-0.777784
1769762634635,0.017946,7.731210,6.937989,-0.205709,-0.469602,-0.774577
1769762634657,-1.895115,5.309075,8.275578,-0.150273,-0.437074,-0.731663
1769762634681,-2.290529,7.253243,9.142377,0.035583,-0.352927,-0.521526
1769762634700,-2.133800,7.101299,5.322236,0.056810,-0.307570,-0.337961
1769762634718,-2.497509,6.739385,8.039286,0.065973,-0.180663,-0.089034
1769762634738,-5.361119,7.640283,7.939984,0.268322,-0.017410,0.338877
1769762634759,-3.768097,7.725826,6.969096,0.362701,0.123700,0.556192
1769762634780,-1.761716,7.874181,7.250851,0.447153,0.421344,1.044731
1769762634800,-1.417149,7.413563,6.270990,0.486248,0.530383,1.267239
1769762634819,-0.175274,7.117451,7.104888,0.520304,0.693026,1.526551
1769762634838,-0.876970,7.415956,6.318846,0.566119,0.879187,1.754556
1769762634860,0.386441,7.098907,7.072586,0.558025,0.923475,1.849393
1769762634879,0.417548,6.266204,6.031109,0.591164,1.017090,1.881616
1769762634901,-0.014357,7.250851,5.682355,0.572686,1.026711,1.860694
1769762634920,1.593022,7.303493,6.128019,0.509309,1.027169,1.824042
1769762634940,1.308276,6.961319,6.847062,0.487165,0.993877,1.639408
1769762634962,2.904887,6.384649,7.532606,0.400880,0.856891,1.517541
1769762634982,2.070390,6.417551,6.425327,0.390037,0.798858,1.267239
1769762635003,0.901496,7.872985,6.096314,0.347277,0.700509,1.084743
1769762635023,1.879562,7.084549,7.390831,0.302225,0.614072,0.935539
1769762635042,1.293919,6.930811,5.973083,0.239612,0.528245,0.779311
1769762635064,1.132403,7.235298,6.884749,0.192270,0.451582,0.699898
1769762635084,-0.133400,6.323034,2.813959,0.215330,0.429591,0.574213
1769762635107,0.355334,8.565108,7.944769,0.111483,0.407294,0.589943
1769762635125,1.271187,6.905686,5.940182,0.185397,0.401949,0.589943
1769762635143,3.082554,6.810572,7.663014,0.010690,0.408974,0.595899
1769762635166,1.176072,8.201400,5.362316,0.290161,0.394924,0.417221
1769762635184,1.026521,6.923034,6.863214,0.096058,0.348346,0.427300
1769762635207,1.200001,7.455437,4.992624,0.152411,0.343917,0.412792
1769762635226,1.041476,7.749754,5.145167,0.119729,0.337350,0.420275
1769762635249,1.263410,7.271788,5.388038,0.057879,0.312915,0.398131
1769762635267,2.042872,7.338189,8.564510,-0.085979,0.239917,0.370031
1769762635290,1.760519,6.704689,6.427122,0.077885,0.324064,0.350026
1769762635309,1.488336,6.345168,5.087739,0.175318,0.324980,0.346666
1769762635329,1.323231,8.578867,3.728018,0.138972,0.307112,0.333990
1769762635348,1.534996,6.749555,8.661420,-0.044899,0.256105,0.298255
1769762635367,1.220340,7.150352,5.436493,0.151189,0.310930,0.290466
1769762635389,1.609173,7.561918,7.858029,0.048411,0.254578,0.275500
1769762635408,1.523630,6.865606,4.189234,0.003360,0.226631,0.266948
1769762635434,1.442872,7.225726,4.547559,0.023671,0.255647,0.256716
1769762635449,1.592423,8.169097,8.283952,0.081856,0.253967,0.240986
1769762635471,2.697309,6.646065,6.071787,0.123395,0.251524,0.202960
1769762635491,2.276173,7.932805,6.300302,-0.021686,0.163254,0.127976
1769762635514,3.377469,6.533004,6.370890,-0.008552,0.163101,0.063377
1769762635532,2.306681,7.323234,5.301897,-0.072235,0.142790,0.038790
1769762635551,2.541178,6.807580,6.056234,-0.005192,0.144011,-0.012828
1769762635574,2.087738,7.366903,6.340382,-0.057116,0.116981,-0.054062
1769762635592,2.270789,5.891727,6.040082,-0.053603,0.082772,-0.136986
1769762635617,2.199004,8.796615,5.456832,-0.067042,0.042455,-0.189215
1769762635633,1.671985,6.578468,7.610373,-0.311541,-0.050549,-0.255647
1769762635652,-0.530608,8.383852,6.493523,-0.089797,-0.024740,-0.340404
1769762635676,2.026123,6.605985,7.261619,-0.239459,-0.148440,-0.305585
1769762635693,4.605586,6.343971,9.955338,-0.173027,-0.139124,-0.320857
1769762635718,2.096113,7.420143,4.469194,-0.145691,-0.137750,-0.419970
1769762635735,0.346959,6.065207,7.997411,-0.198226,-0.066890,-0.384234
1769762635756,-1.109671,7.335796,4.614559,-0.011454,-0.118202,-0.390801
1769762635775,0.105284,7.682157,6.684350,-0.206778,-0.150120,-0.279165
1769762635797,-0.202792,6.874579,7.076175,-0.106596,-0.138666,-0.264504
1769762635817,0.378664,6.585048,7.369296,-0.012675,-0.041539,0.011606
1769762635835,0.161516,7.441080,6.521040,0.014355,-0.000305,0.071013
1769762635857,0.518644,7.356135,7.141977,0.100182,0.059101,0.138361
1769762635876,0.935594,7.432107,4.939384,0.091630,0.150578,0.334601
1769762635898,1.789831,7.735397,8.752347,-0.212123,0.134696,0.455858
1769762635917,2.040479,6.771688,8.051848,0.382554,0.293826,0.451429
1769762635939,0.727418,6.939186,6.453443,0.044899,0.373238,0.508850
1769762635959,0.953540,7.746165,2.333600,0.034667,0.315970,0.499382
1769762635981,2.747559,6.518049,7.287940,-0.097738,0.327729,0.469755
1769762635999,3.101696,6.531807,5.886942,0.057421,0.181580,0.182649
1769762636021,2.519642,8.244471,5.244469,-0.022297,0.143859,0.133779
1769762636039,2.219343,5.847460,7.883752,-0.106443,0.061392,0.013286
1769762636059,2.473580,7.405188,6.834500,-0.075442,0.015730,-0.085674
1769762636081,2.620739,4.615755,5.168497,-0.046273,-0.010385,-0.169210
1769762636101,2.118246,8.155337,9.070593,-0.346055,-0.178525,-0.227853
1769762636119,2.145764,5.323432,8.159525,-0.209985,-0.137445,-0.219759
1769762636142,-0.964308,6.661618,6.567700,-0.082467,-0.144011,-0.337503
1769762636160,0.090927,7.517052,6.853642,-0.083536,-0.157909,-0.229380
1769762636183,0.658624,7.385447,6.419943,-0.085827,-0.120646,-0.108887
1769762636201,0.696910,6.912266,5.341977,0.075136,-0.041386,-0.030696
1769762636220,0.346361,7.339983,7.661220,-0.159894,-0.029474,0.057879
1769762636245,0.282951,5.876174,6.574280,0.034208,0.041844,0.186619
1769762636263,0.598206,7.746763,6.715457,0.169057,0.136376,0.315359
1769762636282,0.377468,7.471589,7.103692,0.167377,0.250607,0.521526
1769762636304,0.408574,5.468198,7.657630,0.025045,0.320857,0.731663
1769762636324,0.148355,6.305088,6.166304,0.216552,0.439059,0.836885
1769762636346,-1.004985,8.522636,2.569891,0.352927,0.501062,0.944244
1769762636364,0.075972,7.604989,10.853246,-0.026420,0.483652,1.070388
1769762636383,1.756930,6.920641,7.366903,0.244040,0.653320,1.234100
1769762636406,2.502892,6.015556,6.559923,0.390495,0.751058,1.267086
1769762636424,0.835095,5.542974,8.258827,0.139430,0.945161,1.300073
1769762636448,0.573081,7.164111,4.847859,0.619570,0.893390,1.344513
1769762636465,1.450649,6.244669,6.406184,0.169210,0.890946,1.351844
1769762636487,1.568495,6.556932,9.404391,0.152258,0.996320,1.328478
1769762636507,2.017149,6.592227,5.705087,0.601091,0.943175,1.268003
1769762636528,3.129812,5.129015,6.133403,0.424246,0.921948,1.193324
1769762636547,2.458027,8.307282,3.577270,0.423024,0.869413,1.062599
1769762636570,2.569891,8.366505,9.726824,-0.072998,0.628274,0.846506
1769762636588,3.708277,3.121437,6.381658,0.098044,0.660650,0.648891
1769762636607,4.966902,7.382456,7.430911,0.130267,0.501215,0.238695
1769762636630,7.938189,4.131806,7.610373,-0.186772,0.257174,-0.095142
1769762636659,3.774080,5.982655,3.521637,0.220522,0.254883,-0.488845
1769762636673,2.934199,6.590432,7.188637,-0.478307,-0.268170,-0.769079
1769762636688,3.667599,6.233901,2.801995,-0.265115,-0.235488,-0.930958
1769762636711,5.067400,7.097112,12.288341,-0.609185,-0.488386,-1.173471
1769762636730,3.078964,6.586244,6.538388,-0.184939,-0.328951,-1.223409
1769762636752,-1.238286,5.864210,5.214559,-0.261756,-0.485179,-1.547015
1769762636771,1.397408,7.612167,7.173682,-0.641866,-0.706007,-1.282205
1769762636793,1.995614,6.326025,7.535597,-0.505338,-0.694553,-1.316414
1769762636812,0.354138,8.565707,4.016353,-0.308181,-0.690888,-1.319773
1769762636834,2.407778,5.560920,14.067405,-0.293979,-0.742659,-1.236390
1769762636852,-0.010768,7.658229,3.982255,-0.494953,-0.631787,-1.108567
1769762636873,-0.366700,5.349155,6.635297,-0.323758,-0.563675,-0.911563
1769762636891,0.827318,7.922038,4.248456,0.040928,-0.424856,-0.574213
1769762636914,0.199202,6.264410,11.245070,-0.547182,-0.381027,-0.231518
1769762636933,-2.918645,9.743574,3.866802,0.220980,-0.043524,-0.073456
1769762636953,1.045065,6.070591,4.066602,0.516181,-0.280234,-0.040164
1769762636975,1.058226,8.480164,9.129815,-0.105221,0.772133,0.466548
1769762636994,1.328615,5.411967,8.352746,-0.141110,-0.032376,0.524580
1769762637016,-0.604786,8.381459,4.511667,0.241292,0.266032,0.548557
1769762637037,0.124427,6.998408,7.203593,0.257021,0.271835,0.668133
1769762637055,0.234497,5.402395,7.972287,0.245415,0.354454,0.754113
1769762637079,-1.923231,6.440880,1.101895,0.347124,0.146455,0.970970
1769762637097,1.251446,8.974281,11.705688,-0.115606,0.904843,0.897819
1769762637115,2.115255,5.415556,10.753943,0.291688,0.487623,1.091004
1769762637138,2.309074,5.169095,2.440081,0.174402,0.988990,1.100778
1769762637157,-0.075374,8.216354,6.866803,0.077122,0.437074,0.890030
1769762637177,1.887339,7.614560,4.825725,0.215483,0.661261,1.013883
1769762637199,3.220141,6.661618,10.664810,0.385761,0.644004,0.988532
1769762637218,4.173681,7.716255,6.433702,0.400422,0.748004,0.847117
1769762637240,2.795415,5.965307,6.178268,0.453262,0.680351,0.888045
1769762637259,3.232105,8.294720,8.830113,-0.161268,0.351553,0.551305
1769762637282,1.149751,7.322636,3.881158,0.189063,0.483194,0.337656
1769762637300,2.197209,4.069593,7.423134,0.375682,0.323300,0.301614
1769762637321,-0.496511,7.449455,3.446263,0.432187,0.165697,0.105374
1769762637340,2.402394,8.990433,7.864012,-0.236863,0.337961,0.096669
1769762637359,-1.220938,5.483153,1.529014,0.102931,0.310167,0.082772
1769762637381,3.184847,7.811369,17.864216,-0.447306,0.212428,0.318413
1769762637402,2.155335,4.990232,7.980662,0.834136,0.619264,0.138055
1769762637420,0.783051,8.781659,1.646860,0.544891,-0.042150,0.133779
1769762637443,3.659224,5.539983,11.042278,-0.556651,0.278554,-0.092088
1769762637461,6.879365,6.996015,13.621741,0.230143,0.255952,-0.324980
1769762637484,13.430315,3.015555,22.763519,-0.282525,-0.235947,-0.386677
1769762637502,-0.841077,11.487942,1.688136,1.298546,0.126602,-1.393688
1769762637525,-16.768902,-2.227120,-20.273190,3.534616,2.636034,-1.935983
1769762637544,6.665207,10.667203,-7.869994,-1.495702,-1.930944,0.386067
1769762637567,7.553543,7.460821,13.585849,-3.808436,-0.699593,0.038179
1769762637584,-1.288535,2.730211,11.340783,-0.134543,-0.338725,-1.148579
1769762637608,-3.185445,5.519644,0.806979,0.589637,-0.321162,-1.605047
1769762637627,3.132803,7.262815,15.876976,0.242055,-0.342084,-0.383929
1769762637647,-1.669592,11.871391,8.934201,-1.110247,0.262519,0.155618
1769762637665,3.079563,3.897310,19.582262,0.822835,0.507018,0.217315
1769762637687,3.264408,7.602596,8.777472,-0.084605,-0.016035,0.891404
1769762637707,-3.022135,7.359724,1.813161,0.854600,0.191659,0.560468
1769762637727,1.057628,10.761122,4.316054,0.052382,0.798553,1.129794
1769762637748,-2.003391,4.568497,1.127020,0.700204,0.514195,0.901331
1769762637767,1.971686,8.018947,6.044270,0.032223,0.717003,1.204167
1769762637789,2.600998,7.625926,8.350353,0.196851,0.660498,0.950353
1769762637810,3.644269,5.524429,15.680167,-0.149815,0.705702,0.793361
1769762637827,5.735596,5.341378,16.052849,0.135459,0.502589,0.540463
1769762637849,2.542374,6.113064,5.434100,0.566424,0.505949,0.120799
1769762637868,2.657230,6.158527,4.509872,0.007636,0.150425,-0.279471
1769762637893,3.594618,6.095118,2.327618,0.153327,-0.124006,-0.595593
1769762637911,7.197610,7.003792,7.102496,0.055283,0.220828,-0.682794
1769762637931,4.549354,4.042674,7.917252,-0.010232,-0.190590,-1.207985
1769762637949,-0.769891,6.702894,-0.746561,0.375529,-0.118202,-1.317635
1769762637971,1.302294,8.026125,8.438888,-0.901942,-0.180052,-1.210887
1769762637990,0.198604,9.166306,6.176474,-0.370795,-0.446237,-1.159879
1769762638009,2.212763,3.531208,8.337790,-0.553902,-0.548862,-0.878271
1769762638031,2.820540,-0.716052,7.685746,-0.362854,-0.481514,-0.713795
1769762638054,-0.104686,2.241477,6.212366,-0.348498,-0.433409,-0.619570
1769762638072,-3.237489,11.614162,3.244069,0.099418,-0.315359,-0.655763
1769762638091,-2.852245,7.666006,0.308674,0.304669,-0.444251,-0.583681
1769762638114,-1.577468,0.880559,1.444667,0.519693,-0.463035,-0.350331
1769762638134,1.364507,9.809975,-2.973082,1.130558,0.254578,-0.763428
1769762638152,11.165508,13.050455,30.226135,-1.709963,-1.387121,0.573755
1769762638175,2.303690,1.802992,19.182661,-3.403280,-0.005956,0.118355
1769762638193,-9.942178,20.772093,-1.522433,1.077260,0.100029,-0.569937
1769762638218,-1.127020,1.488336,-3.711268,-0.012675,-1.195310,1.207527
1769762638236,5.475377,0.725025,-3.128017,0.129961,0.362396,1.189506
1769762638256,9.169296,11.614162,35.047672,-0.911410,-0.699898,0.788474
1769762638276,0.446860,7.988439,4.596612,-4.258338,0.295506,0.311999
1769762638297,-1.699502,3.205784,-0.662812,1.970497,0.555734,-0.656527
1769762638317,-3.391228,5.826523,-0.827318,1.390328,-0.094989,-0.491288
1769762638336,0.796810,7.970492,9.588638,-0.827416,0.110567,0.864985
1769762638358,0.678365,2.888735,11.266605,-1.870010,0.261603,1.149800
1769762638377,0.105284,12.731013,5.053043,1.056949,0.474184,0.911716
1769762638395,-2.449054,11.173883,8.657232,0.140804,0.508087,0.922864
1769762638418,2.038087,-2.803790,10.430314,0.126907,0.519999,1.677282
1769762638439,7.378269,4.630112,12.708282,0.147066,0.556803,1.380707
1769762638458,-0.262014,7.037889,5.469993,0.486248,0.584750,0.610559
1769762638480,1.231705,4.816752,8.093722,0.604603,0.375529,0.261297
1769762638499,3.970889,3.936193,9.110074,0.607810,0.511447,0.286037
1769762638521,2.514258,4.615755,2.894717,0.405309,0.334296,0.241597
1769762638540,1.750948,7.410572,7.548159,0.189368,0.264199,0.099724
1769762638559,3.180660,7.417750,9.128618,0.048869,0.072693,-0.104000
1769762638583,3.154937,2.126023,7.074978,0.004581,-0.042302,-0.361021
1769762638601,4.012166,3.208775,5.085945,0.228311,-0.021075,-0.436921
1769762638620,1.838884,9.037691,5.043472,0.162948,-0.081550,-0.708450
1769762638642,2.186442,4.725226,7.868199,0.096211,-0.149967,-0.667675
1769762638661,2.039881,6.737590,3.796811,0.403934,0.003360,-0.626136
1769762638683,-0.656232,12.628121,3.421736,0.318719,0.013744,-0.613614
1769762638702,-2.532205,22.325634,1.119243,0.714101,0.002749,-0.629954
1769762638725,-1.290928,10.057034,-0.005982,0.594982,-0.144928,-0.259312
1769762638743,5.553741,-4.144369,10.797014,-0.478613,-0.305432,0.313526
1769762638766,5.549554,-4.426124,19.366310,-2.004247,-0.238848,0.140193
1769762638785,3.954738,20.561525,-0.072981,1.958127,0.248317,-1.404531
1769762638803,-5.566304,9.945169,0.089731,0.906676,-1.018006,-3.037525
1769762638827,1.149153,-3.409174,7.235896,-2.141997,0.144622,-0.016493
1769762638846,7.975876,5.161917,22.877178,-1.507614,-0.493121,-0.078496
1769762638864,-0.348156,5.733203,2.144567,0.801913,-0.053451,-0.958447
1769762638887,-0.840479,7.714460,7.703094,-0.580780,-0.816879,-0.908356
1769762638906,0.163310,5.688936,7.213762,-0.233961,-0.254731,-0.430354
1769762638928,0.418744,4.617549,9.489336,-0.440586,-0.438295,-0.458301
1769762638947,-3.921238,9.838689,4.220939,0.135001,-0.226631,-0.461966
1769762638968,-2.312663,10.399207,6.801599,-0.101404,-0.188605,-0.076358
1769762638987,-0.670589,4.542774,8.515457,-0.018784,-0.054367,0.208610
1769762639009,-0.313460,7.666006,7.898109,0.054825,0.058185,0.348498
1769762639028,-0.317049,8.204988,7.767102,0.069791,0.140499,0.433561
1769762639050,2.614159,4.104887,6.873383,0.192575,0.224035,0.575129
1769762639070,2.205584,4.948357,6.564709,0.148593,0.228463,0.518166
1769762639089,2.018944,6.741778,7.908877,0.119271,0.189215,0.328645
1769762639108,4.077968,4.919045,7.672586,-0.087659,0.003054,0.245415
1769762639134,2.467598,5.835496,7.897511,-0.040928,-0.089034,-0.175929
1769762639151,2.852843,8.104490,6.439684,-0.222813,-0.224493,-0.264963
1769762639170,1.386042,4.979464,7.786245,-0.185092,-0.285274,-0.585361
1769762639191,3.658028,5.369494,6.065207,-0.200211,-0.425467,-0.624915
1769762639215,-1.083949,8.391629,7.162316,-0.170889,-0.427300,-0.748004
1769762639233,-1.481157,6.014958,7.450053,-0.178067,-0.453262,-0.736550
1769762639251,1.142573,7.073782,7.460223,-0.124464,-0.462119,-0.573144
1769762639274,0.320040,8.008179,6.352944,-0.016035,-0.385456,-0.558025
1769762639292,-1.811965,7.904091,6.476174,-0.061697,-0.271988,-0.294284
1769762639314,-0.356531,5.674579,8.647063,0.002902,-0.146760,-0.111941
1769762639333,-2.098505,7.092326,6.860222,0.129351,-0.033292,0.103694
1769762639352,-1.079761,6.712466,6.608378,0.248622,0.122326,0.386677
1769762639376,0.833899,7.235896,8.212168,0.176387,0.163406,0.517097
1769762639393,-0.031107,6.812964,6.178866,0.184176,0.247400,0.644462
1769762639415,0.623330,6.984051,6.569495,0.227242,0.326965,0.712116
1769762639435,1.674976,7.109674,7.944769,0.337350,0.391259,0.739299
1769762639456,-0.014955,7.653443,3.191427,0.339335,0.433867,0.730747
1769762639475,2.059024,7.026524,7.402795,0.094684,0.460287,0.782060
1769762639497,0.958325,6.497112,6.851249,0.189063,0.413403,0.545502
1769762639516,1.231107,6.401997,8.279764,-0.135307,0.206778,0.378583
1769762639538,0.733998,6.750153,6.022735,0.174707,0.215941,0.168904
1769762639557,1.377668,5.790631,7.341180,-0.006414,0.046731,-0.049938
1769762639575,2.096113,6.917052,5.372485,-0.092546,-0.098655,-0.180663
1769762639598,1.649253,6.596414,7.573284,-0.157756,-0.171806,-0.430507
1769762639616,1.840081,7.280761,7.273582,-0.052993,-0.242055,-0.552069
1769762639640,0.418744,6.104689,4.977071,-0.088423,-0.298560,-0.606283
1769762639658,1.657628,8.547761,7.917850,-0.088728,-0.318871,-0.596815
1769762639680,0.860220,6.456434,6.422934,-0.039859,-0.251676,-0.536950
1769762639699,0.835693,6.530013,7.719246,0.050854,-0.213497,-0.446542
1769762639721,-0.542573,7.582855,6.218946,-0.132710,-0.229227,-0.374307
1769762639740,0.901496,7.537391,7.515258,-0.031460,-0.241902,-0.348651
1769762639764,0.605982,7.433902,6.657431,-0.041844,-0.208610,-0.280387
1769762639783,0.028714,7.140781,4.598407,0.107054,-0.239612,-0.312763
1769762639801,-0.184247,7.082755,6.232705,-0.036499,-0.205403,-0.242513
1769762639823,0.827318,7.657032,8.599206,-0.248164,-0.198836,-0.168446
1769762639842,1.476372,7.536793,7.164111,0.135612,-0.150884,-0.241292
1769762639861,-2.051247,7.170691,2.731407,0.193339,-0.213955,-0.221744
1769762639882,1.213161,7.771290,9.350553,-0.277791,-0.140957,-0.062919
1769762639902,0.063410,6.336792,7.315457,0.089339,-0.086285,-0.064446
1769762639924,-1.367498,7.499106,5.318646,0.058643,-0.079412,-0.007178
1769762639943,1.136591,7.144370,9.236894,-0.047342,-0.069639,0.130420
1769762639966,-0.413958,6.142376,4.725825,0.110414,-0.003360,0.174707
1769762639984,-1.133600,7.623533,8.001000,0.161726,0.064294,0.261450
1769762640004,0.314656,7.412366,6.632905,0.138819,0.077122,0.347582
1769762640027,0.244666,7.206583,5.353940,0.127365,0.116522,0.346818
1769762640045,1.663012,7.013363,9.496515,0.082772,0.187230,0.423329
1769762640067,1.016351,6.943971,4.062415,0.221591,0.160810,0.396909
1769762640087,1.616950,6.175875,9.101101,0.096822,0.184328,0.362701
1769762640110,-0.486939,7.343573,3.697509,0.199447,0.167224,0.211970
1769762640127,1.619941,7.261619,7.401000,-0.060476,0.045815,0.207236
1769762640147,2.097309,7.030113,7.872386,-0.119882,0.028863,0.148898
1769762640168,2.209173,5.906085,5.501698,-0.034514,0.047495,0.033903
1769762640187,1.359721,8.221739,6.144170,-0.082314,0.033292,-0.085368
1769762640210,1.611566,6.608976,7.530811,-0.131641,-0.022755,-0.156534
1769762640228,0.921237,6.522236,6.510870,-0.067959,-0.060017,-0.245873
1769762640248,0.287139,6.803393,6.763313,-0.038484,-0.120799,-0.352316
1769762640274,0.980459,7.399804,6.291329,-0.222966,-0.135001,-0.315359
1769762640289,1.306481,7.362117,6.841678,0.022755,-0.120646,-0.415235
1769762640311,-0.356531,6.714859,5.132605,0.010843,-0.173486,-0.397215
1769762640333,0.759123,6.493523,8.867801,-0.174096,-0.219606,-0.319635
1769762640352,0.412762,7.578069,7.911270,-0.222966,-0.148593,-0.262825
1769762640371,-0.643071,7.650452,5.246264,-0.005192,-0.109803,-0.242971
1769762640389,1.244866,5.449055,8.121839,-0.152563,-0.031918,-0.074067
1769762640413,-1.383052,8.647063,6.346364,0.215330,-0.047495,-0.210290
1769762640430,-0.230309,6.865008,8.122437,0.022602,-0.085827,-0.058032
1769762640453,-1.060619,6.197411,3.818945,0.037721,-0.083841,0.013592
1769762640471,2.258226,8.566305,10.564312,-0.122631,-0.033903,0.062003
1769762640494,0.072383,6.360721,3.740580,0.112094,-0.008247,0.040317
1769762640514,1.025923,8.067402,10.950154,0.051465,-0.009927,0.046731
1769762640534,-0.994816,5.922834,2.298904,0.327576,0.038179,0.042455
1769762640554,0.111864,8.126026,8.377272,-0.163864,0.297186,0.128282
1769762640576,0.348754,7.165308,5.328218,-0.002596,0.074526,0.105680
1769762640595,0.545564,6.801599,8.286345,0.038637,0.118813,0.222966
1769762640614,-0.744168,8.154739,4.570889,-0.016951,0.057269,0.230449
1769762640635,2.928217,6.492924,8.930613,-0.191659,0.126602,0.316886
1769762640654,0.805783,7.396215,4.114459,0.107970,0.176693,0.206930
1769762640677,1.402792,6.911668,8.035098,-0.091172,0.150120,0.152411
1769762640695,0.805783,6.809375,3.737589,0.078649,0.144928,0.166766
1769762640718,-1.856232,6.923034,2.443072,0.015424,0.132405,0.088575
1769762640736,8.108678,6.594021,19.647467,0.535118,0.016188,-0.009774
1769762640759,3.109473,11.201401,11.838490,-2.180024,-0.614683,0.741590
1769762640777,-6.629913,-1.107877,-8.358130,2.524399,-0.307876,-0.819322
1769762640799,4.615755,12.648460,-0.314656,-1.380707,-0.575129,0.437532
1769762640818,1.266401,5.325227,11.775679,-1.760054,-0.185856,-0.274584
1769762640837,2.517249,5.672784,14.204991,-3.297295,-1.749669,-0.285885
1769762640859,1.106681,7.987242,1.203590,0.896291,-0.222355,-0.484416
1769762640878,0.683749,7.436893,7.740183,-0.373849,-0.240833,-0.603840
1769762640900,0.914656,6.442077,7.260422,-0.199447,-0.302836,-0.761748
1769762640919,0.666999,6.334400,7.527222,-0.222049,-0.385761,-0.741743
1769762640940,-1.026521,7.482955,4.707280,-0.343306,-0.506712,-0.682947
1769762640962,2.751746,7.125227,10.734202,-0.201127,-0.390648,-0.675464
1769762640980,-1.366900,6.132206,2.927020,0.016646,-0.233198,-0.672409
1769762640999,0.058624,9.436694,12.227921,-0.258701,-0.152716,-0.466243
1769762641021,0.657428,4.962714,3.139383,-0.172569,0.089034,-0.175013
1769762641042,-0.309871,7.607980,12.287145,-0.280692,-0.378125,-0.174249
1769762641062,-1.443470,6.629913,4.222136,-0.026420,-0.089950,0.051465
1769762641081,-0.887737,7.018149,5.184649,0.127976,-0.123089,0.042913
1769762641103,0.901496,7.409375,11.605788,-0.168599,-0.148135,0.197767
1769762641122,-2.186442,6.206384,3.103491,0.062461,0.023060,0.311083
1769762641144,0.884746,6.707082,10.223933,-0.225256,0.052382,0.341779
1769762641165,-0.424128,6.438488,4.051647,0.260076,0.105374,0.285274
1769762641183,2.052444,3.961318,9.919446,-0.094989,-0.047953,0.441044
1769762641207,-0.047258,10.588241,4.572086,0.389884,0.170584,0.365144
1769762641224,0.057428,9.824331,9.080164,-0.227394,-0.012217,0.391717
1769762641243,1.503291,-0.766900,4.677969,-0.087048,0.170279,0.693790
1769762641266,4.405785,7.589435,8.574081,0.369879,-0.397978,0.196546
1769762641284,0.744168,8.321639,7.963314,0.098807,0.062919,-0.182801
1769762641309,2.842075,4.859823,6.469594,-0.145386,-0.130878,-0.019242
1769762641326,1.637289,4.399204,6.413961,0.131489,-0.071318,-0.409890
1769762641349,1.789831,11.459826,6.505486,-0.173027,-0.200975,-0.320246
1769762641367,-2.095515,8.291729,3.399603,-0.014813,-0.326202,-0.846048
1769762641388,3.815356,2.337788,8.718249,-0.666453,-0.212734,0.357203
1769762641410,1.591227,9.331410,8.801400,0.050854,-0.457996,-0.635452
1769762641427,-0.211167,6.586244,7.334002,-0.129656,-0.311999,-0.472962
1769762641449,0.646062,6.366105,6.725028,-0.058032,-0.271682,-0.370031
1769762641468,1.806581,8.087142,7.030113,-0.101404,-0.281609,-0.240528
1769762641487,-1.957927,7.819146,4.825127,0.041539,-0.154549,-0.352011
1769762641509,1.371686,4.995017,9.527023,-0.180358,-0.288328,-0.017868
1769762641528,0.173480,5.820541,7.119844,0.059712,-0.105985,-0.145233
1769762641554,-1.278365,7.609176,6.071189,0.134848,-0.063683,-0.107512
1769762641569,0.739980,6.865606,7.148558,0.078649,-0.100182,0.106901
1769762641591,0.864407,6.665207,8.795418,-0.050396,-0.107818,0.156992
1769762641614,-0.129212,5.955137,5.633303,0.168293,-0.002138,0.125533
1769762641632,0.680758,7.179066,7.260422,0.119424,0.025809,0.181427
1769762641652,0.206381,7.772486,6.573084,0.037263,0.007483,0.292146
1769762641671,1.186242,6.266204,6.507879,0.136070,0.077122,0.329409
1769762641694,0.152542,6.661020,8.720044,0.175013,0.187688,0.259770
1769762641713,0.740579,6.537790,5.096114,0.034667,0.056505,0.467159
1769762641734,2.210370,6.643672,8.060822,0.030238,0.077274,0.406836
1769762641753,-0.601197,7.246065,4.362714,0.155618,0.182496,0.168446
1769762641772,1.389632,6.125626,8.699107,-0.092393,0.061850,0.283899
1769762641794,1.197010,6.071189,6.570691,0.182038,0.140193,0.106290
1769762641813,0.511466,7.707880,2.422135,0.198073,0.138819,0.054062
1769762641835,1.021137,6.215955,7.366304,-0.153022,0.057879,0.056658
1769762641855,4.041478,5.461617,10.643275,0.062766,0.005956,-0.067806
1769762641877,3.983452,7.350153,12.363714,-0.899957,-0.412639,0.087506
1769762641896,-0.621536,5.883353,1.765903,0.456927,0.118202,-0.611934
1769762641915,1.052244,7.577471,11.068001,-0.304974,-0.136834,-0.378431
1769762641938,0.396012,6.691528,7.593024,0.113774,-0.111636,-0.370031
1769762641956,2.263012,6.728617,11.799008,-0.074067,-0.238390,-0.369420
1769762641978,0.927219,6.625726,5.371887,-0.266337,-0.393702,-0.376140
1769762641998,-1.432104,5.327022,1.840081,0.137445,-0.261297,-0.450666
1769762642017,-1.197608,8.203195,7.436893,0.282830,-0.325591,-0.545655
1769762642040,0.605384,6.573084,5.024928,-0.400575,-0.533132,-0.167988
1769762642060,3.769294,7.777870,10.524232,-0.035888,-0.303142,-0.364992
1769762642079,0.503689,6.314659,5.374878,0.121868,-0.194408,-0.430660
1769762642098,2.221138,5.846264,7.146763,-0.060170,-0.306349,-0.198226
1769762642120,0.553340,7.004988,6.076573,0.049785,-0.213039,-0.178525
1769762642139,0.588036,6.387042,6.676573,0.049022,-0.200211,-0.115301
1769762642162,-0.448056,6.777072,6.951150,0.064599,-0.177609,-0.170431
1769762642181,0.794417,6.211169,7.775477,0.142637,-0.135307,-0.034819
1769762642200,-0.920639,5.993423,4.433900,0.122478,-0.164475,0.051618
1769762642223,0.038883,6.282954,3.303890,0.210596,-0.157145,0.105985
1769762642241,3.946961,7.828718,18.442081,-0.410807,-0.181732,0.249386
1769762642262,-1.017548,5.822934,4.246662,0.752585,0.234419,0.240833
1769762642284,-0.189631,7.039684,10.361520,0.264810,0.121409,0.443793
1769762642303,0.097508,6.784250,5.697311,0.316581,0.290313,0.645073
1769762642326,-2.595016,11.234900,3.903890,0.492052,0.336434,0.688903
1769762642343,-0.703490,6.000601,8.274979,0.165544,0.386372,0.963792
1769762642363,-0.745962,6.424130,5.895317,0.371406,0.518624,1.090394
1769762642386,1.142573,6.180661,9.263813,0.383470,0.602618,1.125824
1769762642404,1.085743,6.226723,6.778268,0.307723,0.580169,1.095891
1769762642427,2.611168,5.943173,7.341180,0.352927,0.633161,0.942106
1769762642445,1.803590,6.265008,4.220939,0.283136,0.580322,0.777020
1769762642470,2.152344,8.416156,8.316854,0.022907,0.444404,0.612697
1769762642487,3.757928,4.882555,7.561918,0.010996,0.306807,0.489761
1769762642508,4.140182,4.271787,4.111467,0.128740,0.364534,0.261756
1769762642527,3.924229,7.909475,6.850053,-0.094989,0.198836,-0.082772
1769762642549,2.205584,7.805387,6.727421,-0.068417,0.006567,-0.588263
1769762642573,1.614557,6.443273,4.356133,-0.183870,-0.098960,-0.585361
1769762642588,3.741178,6.290731,9.250054,-0.516792,-0.282372,-0.561843
1769762642609,0.999602,6.519245,5.593821,-0.013744,-0.097891,-0.856891
1769762642629,1.538585,6.713064,7.016953,-0.327729,-0.355829,-0.842383
1769762642648,-0.304487,7.427321,3.906881,-0.058948,-0.316581,-1.001971
1769762642676,1.668994,6.625726,10.117453,-0.060170,-0.303905,-0.847728
1769762642696,-0.025125,7.947761,4.909474,-0.067042,-0.337961,-0.705702
1769762642711,-1.314856,10.168300,6.007780,-0.208305,-0.323606,-0.607658
1769762642733,-0.550349,7.289734,5.276772,-0.282830,-0.355523,-0.378889
1769762642752,-0.120239,5.946164,9.076574,0.149662,-0.164017,-0.481820
1769762642771,0.564108,6.107081,9.938589,-1.100168,-0.423635,0.113163
1769762642793,-0.832104,6.178268,5.191827,0.506712,0.197157,-0.071471
1769762642817,1.071386,7.104888,8.538189,-0.232892,-0.157298,0.289092
1769762642831,0.957727,6.571887,7.073782,0.233350,0.142331,0.152258
1769762642853,-0.426521,6.521040,5.316254,0.032529,0.091935,0.315817
1769762642872,-0.357129,7.334002,6.146563,0.082772,0.119577,0.306501
1769762642895,1.895714,7.329814,8.434102,0.124158,0.157145,0.353233
1769762642916,1.442274,6.489933,4.390231,0.136986,0.207236,0.248011
1769762642934,1.819143,7.389036,7.938787,-0.118050,0.093004,0.306196
1769762642955,0.690329,6.870990,6.059225,0.047189,0.132405,0.172111
1769762642975,1.913660,6.372087,5.221737,-0.001680,0.155618,0.163559
1769762642996,1.546362,6.852446,8.175078,-0.146760,0.028863,0.150884
1769762643015,1.311865,6.845267,7.295716,-0.056200,0.056352,-0.000916
1769762643038,1.237089,7.179066,6.074779,0.031001,0.105527,-0.074373
1769762643057,2.310270,6.282356,8.614161,-0.045968,0.066890,-0.104000
1769762643076,1.208375,6.591628,6.881758,-0.145539,-0.063988,-0.157603
1769762643098,1.604986,5.852246,6.398408,-0.056505,-0.016341,-0.244499
1769762643117,0.794417,6.774081,6.832705,-0.259618,-0.154396,-0.268170
1769762643136,0.696311,7.561319,7.634899,-0.047800,-0.072387,-0.328187
1769762643158,0.495314,6.492326,7.083951,-0.200669,-0.154091,-0.284663
1769762643177,1.686940,6.309275,7.960921,0.003054,-0.072235,-0.249386
1769762643199,0.415753,6.416952,5.465207,-0.008094,-0.058643,-0.322689
1769762643217,0.397807,7.747362,7.783254,-0.049175,-0.127060,-0.162337
1769762643239,-0.467199,6.830312,5.338985,-0.130267,-0.117286,-0.144011
1769762643258,0.199801,6.781857,6.534201,-0.104763,-0.114995,-0.176998
1769762643279,1.581656,8.292327,8.958728,-0.195935,-0.136223,-0.112552
1769762643301,0.428315,6.455237,5.653043,0.039553,-0.057879,-0.154091
1769762643319,1.627718,6.501299,7.378867,-0.044440,-0.106138,-0.105985
1769762643342,0.896710,7.289734,8.223534,-0.043066,-0.074984,-0.122020
1769762643360,1.554138,7.018149,7.163513,0.033292,-0.054062,-0.121562
1769762643383,0.732802,6.168098,4.958527,0.039706,-0.010843,-0.127823
1769762643402,-0.036491,6.943373,5.722435,0.016646,-0.058643,-0.138208
1769762643421,2.814558,6.092725,6.909873,-0.183259,-0.176693,-0.096669
1769762643444,0.838684,7.047461,7.725826,-0.121715,-0.159130,-0.244499
1769762643462,1.442872,7.392027,6.198607,-0.047189,-0.112094,-0.309556
1769762643484,3.160919,6.897910,8.319844,-0.063225,-0.177456,-0.277638
1769762643503,-1.047458,6.866803,3.935595,-0.098960,-0.189674,-0.435547
1769762643523,2.490330,7.555337,10.389038,-0.354912,-0.332616,-0.208763
1769762643546,-1.046262,5.901897,5.587839,-0.017104,-0.140499,-0.461508
1769762643564,0.842274,6.616753,8.545966,-0.028558,-0.186772,-0.265573
1769762643587,-1.012762,6.991230,5.290531,0.090866,-0.158519,-0.290772
1769762643607,1.050449,6.456434,9.299107,-0.088728,-0.174707,-0.199905
1769762643626,-0.547956,7.002595,5.567500,0.090255,-0.131794,-0.165544
1769762643647,1.522433,7.707880,7.850253,0.017715,-0.098044,-0.118508
1769762643667,1.089332,6.574280,7.969894,0.048258,-0.081550,-0.092546
1769762643688,0.987039,6.993622,5.255237,0.093004,-0.077122,-0.060017
1769762643708,0.355334,6.816554,6.793223,-0.012065,-0.078038,-0.052076
1769762643727,1.578067,6.650851,6.693922,-0.072693,-0.126754,-0.015730
1769762643748,-0.002393,6.458228,6.577869,0.096364,-0.006567,-0.153632
1769762643767,-0.104088,8.196614,7.918448,-0.050854,-0.083230,-0.038484
1769762643789,0.813560,6.757929,7.557730,-0.059712,-0.089950,0.045204
1769762643808,2.396412,5.207978,8.954540,0.054672,-0.054062,0.006414
1769762643834,0.526421,6.994221,6.504290,0.171042,0.064904,-0.083688
1769762643849,0.903291,5.557331,7.589435,0.081550,-0.016341,0.080481
1769762643871,-0.419940,8.073982,6.941578,0.085368,-0.026573,0.029169
1769762643894,-0.047258,6.425327,7.386643,0.027794,-0.042608,0.015730
1769762643912,0.716650,6.432506,4.573282,0.094684,-0.046731,0.034056
1769762643931,1.638485,7.413563,7.019943,-0.024435,-0.038484,0.084757
1769762643950,1.589432,6.184848,7.307082,-0.011606,0.025504,0.126602
1769762643972,1.290928,6.851249,7.819745,0.111177,0.087048,0.100335
1769762643990,0.800997,7.671988,5.514858,0.098960,0.115148,0.085979
1769762644011,2.522633,5.271986,8.298907,0.005345,0.061086,0.048869
1769762644033,1.957927,6.155536,6.161518,0.020617,0.057574,-0.012217
1769762644052,2.365305,6.681359,7.991429,-0.038790,-0.042913,-0.119424
1769762644074,1.859223,6.458228,5.487939,-0.186619,-0.183565,-0.241902
1769762644093,2.428117,5.776274,8.024929,-0.093157,-0.182038,-0.497397
1769762644112,1.789831,7.305287,5.565705,-0.419359,-0.419511,-0.473878
1769762644134,2.140978,5.765506,7.881958,-0.155771,-0.278096,-0.745866
1769762644152,1.406381,7.292127,7.286145,-0.178678,-0.332463,-0.693484
1769762644176,0.940978,6.562914,7.246664,-0.160047,-0.377667,-0.722653
1769762644197,0.512662,6.954739,8.121240,-0.145386,-0.396299,-0.669202
1769762644216,-0.841675,7.211967,5.126623,-0.249691,-0.410196,-0.510988
1769762644235,-0.388834,7.040282,7.895118,-0.068570,-0.368046,-0.518777
1769762644257,0.667598,7.079764,8.845667,-0.175471,-0.382554,-0.395382
1769762644276,-0.389432,5.839684,7.646265,0.043219,-0.275347,-0.290619
1769762644299,-0.168096,7.009176,6.796215,0.013897,-0.288023,-0.172722
1769762644317,0.645464,7.104888,8.829515,0.042455,-0.232587,-0.149509
1769762644337,0.171087,5.943771,6.588039,0.078954,-0.164628,-0.053451
1769762644356,0.266800,6.266204,7.663613,0.084299,-0.180969,-0.025198
1769762644378,-1.116252,7.254440,6.408577,0.052534,-0.167835,0.088575
1769762644397,0.787239,6.577271,7.506285,0.114995,-0.133321,0.059254
1769762644418,1.033699,7.432107,7.881958,0.115301,-0.128587,0.111788
1769762644438,-0.176471,6.400801,5.013562,0.118355,-0.105527,0.098502
1769762644459,0.244068,7.240083,6.771090,0.082314,-0.101709,0.129809
1769762644481,0.951147,7.012167,8.834899,0.122173,-0.078954,0.167682
1769762644501,0.385843,6.552745,6.753742,0.305891,0.052076,0.153327
1769762644519,0.278764,6.704689,6.973882,0.035125,-0.067042,0.245720
1769762644541,1.259223,7.391429,8.410771,0.112705,-0.004429,0.324369
1769762644561,-1.402792,6.702296,5.900701,0.168293,0.089034,0.349567
1769762644581,0.033500,6.065805,7.054639,0.145080,0.085368,0.450055
1769762644599,-0.234497,8.022536,7.416554,0.191048,0.153327,0.454331
1769762644622,-0.055035,6.128019,5.828318,0.186161,0.171806,0.532369
1769762644641,0.991227,6.687939,7.307082,0.155160,0.227394,0.571617
1769762644663,1.132403,7.470392,6.536593,0.196698,0.257327,0.553902
1769762644681,0.224925,7.120442,5.761319,0.129045,0.275500,0.502436
1769762644704,1.447060,6.825527,8.499306,0.056200,0.212123,0.509614
1769762644722,1.828117,6.233901,5.522037,0.157756,0.239612,0.339488
1769762644745,2.449054,6.318248,6.827919,0.001222,0.138055,0.222507
1769762644764,0.958924,7.068398,5.520242,0.083841,0.141262,0.004429
1769762644784,1.506880,5.621338,6.205187,-0.065057,0.122631,-0.021533
1769762644807,3.564708,7.219744,10.152148,-0.007483,-0.010690,-0.114384
1769762644825,0.401994,6.725626,4.297510,-0.012523,-0.071318,-0.386525
1769762644847,1.730011,7.610970,9.078369,-0.021991,-0.115759,-0.310472
1769762644867,-0.777069,5.933602,3.326024,-0.047953,-0.164933,-0.444862
1769762644885,0.610768,6.666404,7.552945,-0.062614,-0.140193,-0.222355
1769762644908,0.740579,7.336394,7.644470,-0.251218,-0.201433,-0.177609
1769762644926,1.059422,7.067800,9.331410,-0.021838,-0.110719,-0.192270
1769762644948,-0.933201,7.061818,4.434499,0.085674,-0.104916,-0.170737
1769762644967,1.307079,7.214360,8.154141,0.091019,-0.093004,-0.106443
1769762644989,0.459422,5.062016,7.080362,0.048716,0.046578,0.086285
1769762645007,1.620539,7.087541,7.433902,-0.193491,-0.141262,0.122784
1769762645028,0.353540,7.034300,4.261019,-0.032987,-0.054825,0.154854
1769762645054,1.957329,6.600601,10.340583,-0.023060,0.015577,0.034667
1769762645069,0.357129,7.397411,4.534997,0.110719,0.028711,0.076205
1769762645091,2.270190,6.626324,9.310472,-0.098960,-0.062614,0.029016
1769762645111,0.485145,6.242874,4.183252,0.099571,0.003360,-0.044288
1769762645131,1.861018,7.170093,9.172886,-0.132252,-0.049175,0.010232
1769762645154,-0.242273,6.858428,4.892724,0.007789,-0.012370,0.022297
1769762645174,1.575076,6.326025,8.539984,0.042150,0.012523,-0.021380
1769762645191,1.377668,6.396613,6.168697,-0.020769,-0.035736,-0.003054
1769762645214,0.820738,7.025926,6.430113,-0.109345,-0.064599,0.047953
1769762645232,-0.068794,7.800602,5.895915,0.011912,0.001680,-0.084910
1769762645251,2.647060,7.644470,9.273982,-0.097738,-0.032834,0.029932
1769762645273,0.452243,6.349953,6.230910,-0.039401,-0.034972,0.035583
1769762645292,2.045265,5.582455,7.753344,-0.020006,-0.009774,-0.013134
1769762645314,0.640678,6.141179,5.740980,0.032987,0.024587,-0.026573
1769762645333,0.945763,7.585846,7.722237,-0.089950,-0.021991,-0.016188
1769762645355,0.521037,6.766304,5.693123,0.009927,-0.000305,-0.006414
1769762645376,2.064408,7.049255,8.423334,-0.019395,0.010843,-0.065515
1769762645394,1.402792,6.811170,6.586843,0.008858,-0.046884,-0.109650
1769762645414,0.813560,6.639484,6.069993,-0.038943,-0.089950,-0.154091
1769762645435,-0.605982,6.459424,2.139782,0.127671,-0.127213,-0.221744
1769762645455,3.999005,7.515856,13.882559,-0.384081,0.053451,-0.095600
1769762645476,-0.210568,6.687341,3.405585,0.339030,-0.001527,-0.273973
1769762645495,1.831706,7.493722,11.359925,-0.135612,-0.165086,-0.218842
1769762645517,0.564706,6.893722,4.489533,0.005803,-0.120340,-0.133779
1769762645536,-0.372084,6.666404,5.553741,0.083230,-0.065821,-0.230601
1769762645558,0.982852,7.174281,9.232108,-0.200669,-0.174860,-0.003207
1769762645578,1.919044,6.056832,7.948359,0.144011,-0.003512,-0.060323
1769762645601,0.751346,6.855437,7.213762,0.033445,-0.038484,-0.047342
1769762645619,0.131007,6.324829,5.135596,0.147524,-0.016799,-0.056047
1769762645639,0.457029,6.980462,6.786045,-0.018631,-0.067042,0.019700
1769762645657,1.091725,7.347760,8.283354,0.027183,-0.071318,-0.029474
1769762645681,1.380659,6.865008,6.263213,0.013744,-0.066126,-0.004429
1769762645699,2.511267,5.908477,8.476574,-0.052076,-0.072998,0.002749
1769762645718,1.369293,6.734599,6.524031,0.034208,-0.036957,-0.010232
1769762645740,0.984646,6.632306,6.693922,0.086743,-0.005803,-0.020769
1769762645759,-0.084347,6.971489,4.703691,0.069333,-0.013897,-0.037263
1769762645781,1.106681,6.928418,7.230512,-0.063530,-0.045357,0.048564
1769762645800,1.451845,4.847260,6.964310,-0.100029,-0.034667,0.052229
1769762645822,0.816551,7.491928,8.112267,0.074526,0.045204,-0.056505
1769762645841,2.315654,5.705686,9.820144,-0.060017,-0.078649,0.093768
1769762645863,0.490529,6.973283,4.942974,0.169668,0.057421,-0.032987
1769762645882,-0.144766,8.980862,7.029515,-0.028252,-0.026114,0.017562
1769762645901,1.969293,6.330811,7.328618,0.053909,-0.003971,0.001680
1769762645921,0.838086,6.262017,6.687341,0.011148,-0.027947,-0.055131
1769762645943,2.021935,5.909674,8.836096,-0.057421,-0.077274,0.018631
1769762645962,0.664607,7.738986,5.313861,0.084910,0.006872,-0.120646
1769762645984,1.473979,7.429714,8.873184,-0.002902,-0.057116,-0.011148
1769762646003,1.357329,5.176273,6.134599,-0.057879,-0.062003,0.004734
1769762646027,0.564706,7.448259,6.621539,-0.039706,-0.006567,-0.076358
1769762646044,0.991227,6.903293,7.817950,0.105221,0.029932,0.047189
1769762646063,0.016750,6.536593,5.827121,-0.046426,0.063530,0.100945
1769762646086,1.134198,6.873383,7.839485,0.103389,0.087965,0.149662
1769762646104,-0.100499,6.695716,6.158527,0.020769,0.091477,0.153327
1769762646127,0.427119,6.797411,6.975078,0.045968,0.101556,0.184787
1769762646145,0.456431,6.562914,6.034101,0.062308,0.115606,0.211512
1769762646166,1.127618,6.241678,5.991628,0.040775,0.109956,0.221744
1769762646187,2.749951,6.399006,10.059426,0.009010,0.090866,0.293368
1769762646207,-0.671187,7.039684,4.531408,0.145233,0.186466,0.061392
1769762646228,2.095515,8.021938,7.060621,0.095906,0.127213,0.136070
1769762646247,2.751746,6.405586,8.825328,-0.197615,0.011301,0.110261
1769762646269,0.911067,7.764111,5.106882,0.072998,0.108581,-0.071318
1769762646288,2.091327,6.172884,7.534400,-0.088728,0.055894,-0.068111
1769762646310,2.138585,6.572485,5.999404,-0.149051,0.004429,-0.133016
1769762646332,1.592423,7.232904,6.782456,-0.105527,-0.037568,-0.335976
1769762646348,0.653839,5.919245,5.483751,-0.033903,-0.009927,-0.379347
1769762646374,1.318445,6.799804,7.826324,-0.154091,-0.128740,-0.355218
1769762646389,1.592423,7.506285,4.975276,-0.154549,-0.146913,-0.341168
1769762646409,0.759123,6.190232,8.751151,-0.122326,-0.116675,-0.502284
1769762646433,0.481556,6.056832,5.151149,-0.133474,-0.182954,-0.380569
1769762646453,3.230311,7.673782,13.028919,-0.325133,-0.237474,-0.388205
1769762646472,-0.620937,6.227919,2.235495,0.056200,-0.131641,-0.433714
1769762646492,1.443470,7.639086,10.719247,-0.028863,-0.191812,-0.382401
1769762646511,-0.298505,5.645865,3.979862,-0.113163,-0.145386,-0.305432
1769762646534,1.042673,6.931409,8.904889,-0.135765,-0.204945,-0.343153
1769762646552,-0.409173,6.934998,5.751149,0.051007,-0.153022,-0.274736
1769762646575,0.163310,7.184450,7.589435,-0.227547,-0.243430,-0.164475
1769762646593,1.124627,7.180263,6.706484,0.004581,-0.121104,-0.110719
1769762646615,1.018146,7.913663,8.241479,0.204640,0.003512,-0.210901
1769762646634,-0.671187,6.058627,5.489733,0.194102,0.005192,-0.104152
1769762646653,0.584447,7.302895,9.460024,-0.087965,-0.075136,0.036041
1769762646675,0.046062,7.487740,5.528018,0.116522,-0.030543,0.079260
1769762646694,1.574477,6.120242,8.244471,0.051007,-0.004123,0.071166
1769762646715,1.162314,5.103292,6.604789,0.031460,0.001985,0.178373
1769762646738,0.416351,7.064809,7.973483,0.085979,0.050091,0.090408
1769762646756,1.503889,5.861817,6.581459,0.031460,0.011759,0.145539
1769762646777,1.104886,6.479166,5.934798,0.129809,0.046273,0.051160
1769762646795,0.340379,5.946763,4.580461,-0.140804,-0.082009,0.083078
1769762646818,3.092125,6.257829,11.839686,0.000458,0.026725,-0.026725
1769762646836,0.175274,7.031309,4.331009,0.060476,-0.037568,-0.057421
1769762646858,1.596013,6.667002,8.739784,-0.029780,-0.126449,-0.205403
1769762646879,0.565903,7.722237,5.991628,0.023671,-0.156381,-0.270460
1769762646900,1.406980,6.132804,6.997810,0.000916,-0.160963,-0.272598
1769762646918,0.989432,6.741778,5.633303,-0.059101,-0.186619,-0.235488
1769762646940,1.195215,6.807580,7.811968,-0.034208,-0.166155,-0.193033
1769762646963,1.401596,6.338587,7.642675,-0.076969,-0.158519,-0.132558
1769762646980,0.683749,6.819544,6.838089,0.049480,-0.086590,-0.211817
1769762646999,0.903291,6.463612,7.559525,0.000611,-0.130878,-0.124311
1769762647021,0.521037,5.868996,6.902097,-0.038332,-0.123089,-0.097738
1769762647042,0.691526,7.789236,7.526025,0.094073,-0.055589,-0.187994
1769762647060,0.588634,6.583253,6.372685,0.043982,-0.103694,-0.059101
1769762647082,2.049453,6.187840,9.222537,-0.130878,-0.169820,0.032223
1769762647101,0.096311,6.108278,6.675377,0.022297,-0.073609,0.000305
1769762647123,0.119043,7.711469,8.073383,0.080023,-0.016951,0.032681
1769762647142,-0.488136,6.369096,5.646463,0.137292,0.001680,0.117133
1769762647164,1.828715,6.541977,10.515858,-0.104000,-0.063225,0.253662
1769762647184,0.425324,6.364310,5.031508,0.184939,0.060170,0.178983
1769762647202,1.615155,5.833103,8.467003,-0.087506,-0.040775,0.195019
1769762647224,1.026521,6.741778,5.398806,0.158672,0.061850,0.047342
1769762647243,1.214956,7.064210,8.430512,0.002902,0.000000,0.114384
1769762647266,1.535594,6.658627,5.797809,0.114690,0.016493,-0.010079
1769762647284,1.344168,6.489335,7.006185,0.050091,-0.032834,-0.047495
1769762647307,1.733600,6.104689,9.353543,-0.029322,-0.072998,-0.071777
1769762647326,0.879961,6.223134,6.373283,0.115453,-0.063225,-0.142331
1769762647348,1.564906,6.658627,8.942576,-0.017104,-0.128892,-0.134543
1769762647374,0.298505,6.687341,4.608576,0.167377,-0.109803,-0.199905
1769762647392,0.594616,7.942975,6.221937,-0.105221,-0.119882,-0.085063
1769762647407,1.359721,5.715257,7.553543,-0.146455,-0.155771,-0.030543
1769762647427,0.940978,6.675377,8.081758,0.057574,-0.052534,-0.030543
1769762647448,1.150349,6.391229,6.943971,0.048869,-0.063377,0.005040
1769762647468,1.214357,7.293324,8.803793,0.041233,-0.031765,0.052993
1769762647487,0.642473,6.675975,6.472585,0.140193,0.011912,0.043982
1769762647511,0.460618,6.805188,7.175477,0.026420,-0.011301,0.124922
1769762647528,1.421935,6.973283,7.738389,0.223424,0.074831,0.051160
1769762647547,0.240479,6.250053,5.063213,0.234878,0.126449,0.134848
1769762647569,1.024128,7.130611,5.987441,-0.047647,0.002291,0.209985
1769762647588,1.477568,6.167500,7.145566,0.027642,0.069333,0.178678
1769762647611,3.138187,7.680363,10.633105,0.034056,0.097738,0.149051
1769762647631,0.856032,5.489135,6.744769,0.285121,0.200058,-0.012523
1769762647650,1.046860,7.358528,6.872187,-0.149204,-0.065057,0.102167
1769762647672,1.533201,5.850451,7.007979,-0.054520,-0.030391,-0.042455
1769762647692,1.640878,6.677770,8.163713,0.007178,-0.072998,-0.070249
1769762647712,1.960918,6.348158,8.123034,-0.011148,-0.067806,-0.175929
1769762647731,-0.254237,6.861419,4.396811,0.111025,-0.116522,-0.231823
1769762647753,-0.277567,6.430113,3.920640,-0.025656,-0.111177,-0.192881
1769762647772,1.995016,6.415756,10.343575,-0.371711,-0.217621,-0.098502
1769762647793,1.225125,6.226124,5.919245,0.054214,-0.121715,-0.166155
1769762647813,0.995414,7.050452,9.300901,0.090561,-0.089644,-0.178983
1769762647835,0.615554,6.300900,6.986444,-0.058948,-0.146913,-0.063683
1769762647854,0.737588,6.812366,6.514460,-0.034667,-0.105221,-0.037110
1769762647876,1.042074,6.717850,6.420541,0.084452,-0.078649,-0.036652
1769762647894,0.269193,7.249654,7.647461,0.040928,-0.086896,-0.025045
1769762647914,0.412164,7.130013,6.843473,0.087506,-0.060476,0.033598
1769762647935,1.165903,6.873981,7.945966,-0.071624,-0.148287,0.123547
1769762647954,1.186840,6.345168,7.186244,-0.016799,-0.057269,0.156992
1769762647976,1.676172,5.842675,7.307680,0.088881,0.013744,0.109192
1769762647995,-0.272782,7.167700,5.790032,0.133474,0.021228,0.057574
1769762648018,0.698704,6.757929,8.006983,0.123089,0.026878,0.194866
1769762648036,0.919442,5.361717,8.642876,0.109192,0.051924,0.261450
1769762648058,-1.151546,8.285149,5.176273,0.246331,0.115606,0.301614
1769762648078,1.324427,7.089335,7.935796,-0.085368,0.095753,0.459676
1769762648099,0.637687,6.216553,5.505885,0.202502,0.223424,0.380874
1769762648118,1.492523,6.229115,8.190034,0.126754,0.229991,0.437837
1769762648137,0.890728,6.365507,6.539584,0.141110,0.238848,0.421497
1769762648159,0.783649,7.093523,6.381060,0.165086,0.240223,0.441197
1769762648178,0.899103,7.042675,6.947560,0.058643,0.203723,0.487470
1769762648200,2.343172,5.186443,8.997611,-0.146302,0.153480,0.579253
1769762648219,0.532403,5.709873,7.929814,0.067806,0.275805,0.467617
1769762648241,0.133998,6.751349,6.326025,0.149051,0.323606,0.494953
1769762648260,0.409173,6.836893,7.887341,0.175471,0.337045,0.552985
1769762648282,1.272383,7.042675,7.488338,0.178373,0.384845,0.557414
1769762648302,1.121037,6.623333,6.693323,0.218690,0.424704,0.547029
1769762648321,1.211965,6.662217,6.863214,-0.021991,0.314290,0.579558
1769762648343,2.306083,5.986244,8.131410,0.116981,0.329103,0.509156
1769762648362,2.287539,6.446264,7.006185,0.057574,0.319330,0.353691
1769762648383,2.294119,7.385447,4.971687,-0.007483,0.227089,0.326202
1769762648405,3.425924,6.470192,8.143373,-0.007941,0.260687,0.136681
1769762648423,2.581856,6.393024,6.415157,-0.067042,0.123700,-0.066584
1769762648443,2.825325,5.946763,7.634301,-0.117286,0.077580,-0.117744
1769762648467,1.944168,6.299704,5.793622,-0.041997,0.083230,-0.291688
1769762648487,2.123032,6.468398,7.738389,-0.096822,0.007178,-0.419511
1769762648506,1.675574,6.673583,5.462216,-0.057116,-0.055436,-0.498924
1769762648524,2.147558,6.399006,7.088737,-0.213803,-0.175165,-0.549626
1769762648547,2.318645,6.259624,7.697112,-0.296422,-0.262366,-0.549015
1769762648567,0.815354,6.735796,6.602396,-0.206472,-0.239612,-0.611018
1769762648586,1.155733,6.595217,6.955935,-0.259312,-0.273820,-0.604145
1769762648608,0.527617,6.154340,7.731210,-0.033750,-0.198836,-0.691652
1769762648627,0.583251,7.245467,4.850252,-0.220675,-0.299018,-0.465479
1769762648647,1.054637,6.270392,8.035697,-0.246789,-0.218995,-0.354454
1769762648669,0.936192,6.473184,7.468598,-0.099876,-0.135765,-0.284663
1769762648688,-0.446860,7.993822,5.529215,-0.029932,-0.096822,-0.199295
1769762648707,0.678963,7.204191,7.801200,-0.065973,-0.057574,-0.088881
1769762648729,0.897308,6.891329,8.176275,0.103542,0.028252,-0.085979
1769762648748,1.325026,6.863214,8.548359,0.074526,0.051618,0.065821
1769762648771,0.987638,6.007780,7.105487,0.106290,0.070097,0.120188
1769762648791,0.356531,6.854240,6.798009,0.132100,0.134085,0.158367
1769762648811,0.085543,6.699305,6.501897,0.021686,0.156840,0.250607
1769762648833,0.569492,6.664609,6.879963,0.060017,0.149815,0.299782
1769762648851,1.384846,6.343373,8.678768,0.081092,0.188910,0.284052
1769762648873,1.177269,6.289534,6.163911,0.024893,0.173180,0.291993
1769762648892,1.217349,6.675377,7.161718,0.080940,0.127365,0.139583
1769762648911,1.990828,6.187241,7.152745,0.049327,0.086285,-0.001680
1769762648934,1.920838,6.401399,6.893124,-0.081856,-0.009010,-0.040775
1769762648955,2.472982,6.632905,7.987840,-0.168446,-0.093310,-0.108887
1769762648978,1.097707,6.288936,5.885147,-0.080634,-0.067195,-0.253967
1769762648992,1.058824,6.144170,7.339385,-0.191812,-0.178678,-0.207389
1769762649015,1.060619,7.018149,7.751549,-0.001222,-0.076053,-0.265115
1769762649035,0.388235,6.151349,7.841280,-0.033598,-0.104305,-0.210443
1769762649054,0.807578,6.453443,8.013563,-0.018173,-0.100793,-0.128740
1769762649076,0.517448,6.497710,5.842675,0.034972,-0.068722,-0.108581
1769762649095,1.030110,7.125227,8.438888,0.031307,-0.043371,-0.053603
1769762649116,2.006382,6.510272,7.767701,0.062919,-0.004123,-0.000458
1769762649137,0.613161,6.765108,6.049654,0.152411,0.015882,-0.036041
1769762649158,0.951147,6.525228,7.359724,0.011912,-0.015882,0.030085
1769762649175,1.341177,6.954739,6.858428,0.013897,0.008552,0.059254
1769762649199,0.547956,6.840482,5.937191,0.002291,0.023518,0.054825
1769762649220,0.921237,6.720840,7.007979,-0.013897,0.034056,0.097433
1769762649239,1.067797,6.637690,6.284151,0.083536,0.052382,0.057269
1769762649258,1.390828,6.700501,6.869195,0.046884,0.045815,0.036041
1769762649280,1.520041,6.517451,6.871588,0.057421,0.017257,-0.005192
1769762649298,2.050649,6.469594,7.726424,0.026420,-0.007789,-0.043371
1769762649319,1.022932,6.592227,7.376474,0.041692,-0.006414,-0.125838
1769762649341,0.952343,6.741179,6.082555,0.070555,-0.032834,-0.120188
1769762649360,2.708675,6.186045,9.078369,-0.163712,-0.149509,-0.042913
1769762649382,0.532403,6.889534,6.695118,-0.026878,-0.065515,-0.124464
1769762649402,1.338784,6.331409,7.977073,-0.037263,-0.072387,-0.075289
1769762649421,-0.081954,6.897910,5.796015,0.064599,-0.024587,-0.085674
1769762649443,-0.261416,6.610771,7.054639,-0.057421,-0.019090,0.026725
1769762649464,-0.052044,7.387242,6.340382,-0.013134,-0.008247,0.074373
1769762649482,1.444068,6.115457,7.576275,-0.061239,-0.002902,0.185092
1769762649503,1.417149,7.139585,7.978269,0.047953,0.061697,0.097891
1769762649526,0.985843,6.241678,6.844669,0.042150,0.059101,0.177304
1769762649544,1.366900,6.266204,7.871190,0.041539,0.092546,0.189368
1769762649567,1.770091,7.372885,6.631708,0.126907,0.110719,0.174096
1769762649587,1.210170,6.672386,6.959525,0.037415,0.103694,0.156229
1769762649606,1.709074,6.687341,8.046464,-0.023060,0.092088,0.153785
1769762649627,1.560719,6.884749,7.170093,0.257632,0.180052,0.008399
1769762649647,1.481157,6.677770,7.344769,0.147982,0.132405,0.048716
1769762649671,1.172483,5.633901,4.747360,-0.123089,-0.063225,-0.004276
1769762649692,0.644866,6.761518,5.937191,0.033292,0.047342,-0.142790
1769762649707,3.137589,6.897311,10.967503,-0.364992,-0.149356,0.012370
1769762649728,2.208575,6.628717,7.168897,0.007025,-0.002902,-0.158519
1769762649747,1.356132,5.863612,6.625128,0.121409,0.028405,-0.307418
1769762649767,0.613759,6.959525,6.930212,0.019090,-0.031918,-0.181885
1769762649789,1.127020,6.452845,6.452845,-0.037110,-0.072998,-0.174555
1769762649807,1.520041,6.653244,7.337591,0.056810,-0.065210,-0.236252
1769762649831,1.201795,6.596414,6.825527,-0.045051,-0.100335,-0.185550
1769762649850,1.574477,6.839285,7.064210,-0.072387,-0.108123,-0.217315
1769762649869,1.711466,6.522236,7.448259,0.088423,-0.065210,-0.237016
1769762649891,0.754936,7.262815,5.956334,-0.054672,-0.130420,-0.219300
1769762649911,0.487538,7.152745,7.014560,-0.112857,-0.125991,-0.216093
1769762649930,0.739980,6.967899,6.902695,0.004887,-0.093310,-0.200669
1769762649953,0.780658,6.532406,7.345965,-0.001069,-0.076511,-0.132710
1769762649971,-0.105882,6.732206,7.987242,-0.033903,-0.083078,-0.100182
1769762649994,1.066601,6.415756,7.680363,0.023671,-0.062614,-0.020006
1769762650014,1.134198,6.509674,7.994421,0.063377,-0.011148,0.017257
1769762650032,0.084347,6.540183,6.289534,0.051160,-0.001833,0.047953
1769762650054,0.331406,7.073782,6.183053,0.136528,0.041997,0.097738
1769762650074,1.238884,6.763313,7.396215,0.091172,0.059407,0.138361
1769762650095,1.119841,6.611967,6.337391,0.079871,0.046426,0.123395
1769762650115,1.465604,6.652047,7.926823,0.079871,0.116217,0.129503
1769762650133,1.347757,6.838089,8.055437,0.318413,0.160657,-0.033139
1769762650155,1.155733,6.393024,4.849055,0.112246,0.012370,-0.016646
1769762650174,0.921237,8.231908,7.322636,0.071471,0.052382,0.000153
1769762650196,1.289133,6.141179,7.561918,-0.017715,-0.009774,0.163559
1769762650215,0.959522,8.205587,6.169893,0.024129,0.053603,0.084605
1769762650235,0.677767,6.600601,7.607980,-0.083688,0.006567,0.147677
1769762650258,-0.357129,6.016154,6.154340,-0.010079,0.085368,0.138208
1769762650277,2.640480,6.854240,6.486942,0.143706,0.110872,0.140652
1769762650298,1.616352,7.420741,6.710073,-0.064294,0.004276,0.054367
1769762650319,2.682952,6.717850,8.258229,-0.073609,-0.027336,-0.047953
1769762650337,2.679961,5.240282,5.984449,-0.056200,-0.060476,-0.186161
1769762650359,1.867598,6.972087,5.308477,0.010996,-0.043371,-0.323453
1769762650378,3.241078,6.285347,8.385049,-0.227547,-0.198989,-0.282830
1769762650399,0.551546,6.146563,7.101299,-0.098349,-0.154702,-0.509614
1769762650421,0.608375,7.151549,6.707680,-0.023518,-0.170431,-0.551000
1769762650440,1.476970,6.376274,7.746165,-0.208152,-0.320246,-0.441350
1769762650460,0.272782,7.041479,6.168697,-0.095753,-0.280998,-0.493731
1769762650481,1.041476,7.245467,7.520642,-0.057421,-0.253051,-0.498771
1769762650500,0.382253,6.632905,6.394818,-0.043830,-0.266490,-0.448680
1769762650522,0.228515,7.272386,7.204191,-0.007789,-0.257021,-0.415999
1769762650542,0.332004,6.672386,6.580861,-0.125227,-0.270155,-0.353080
1769762650563,0.554537,6.554539,7.016953,-0.065515,-0.257480,-0.325591
1769762650581,1.314258,7.602596,9.424730,-0.019853,-0.211817,-0.287870
1769762650604,1.398605,7.125227,7.584650,-0.107207,-0.271071,-0.156229
1769762650622,0.040080,6.666404,6.366703,0.195935,-0.134848,-0.280998
1769762650645,0.728016,6.541379,7.357930,-0.061850,-0.190284,-0.096517
1769762650663,-0.087338,7.057032,6.988238,0.067348,-0.107054,-0.037721
1769762650687,0.216550,6.149554,7.226325,0.023671,-0.090713,0.079260
1769762650705,0.597607,6.693922,6.673583,0.071318,-0.040623,0.134543
1769762650727,1.110270,6.943373,7.550552,0.133932,0.001374,0.182649
1769762650747,0.861416,6.815357,7.627122,0.150578,0.073456,0.217010
1769762650764,-0.445663,7.138388,4.822136,0.108276,0.073762,0.351247
1769762650787,1.627119,6.557530,8.321639,0.031765,0.115912,0.381638
1769762650809,0.424726,6.963114,7.024131,0.211665,0.199142,0.331089
1769762650827,1.913660,6.927820,6.468398,0.136986,0.162643,0.409890
1769762650847,1.767698,6.458228,7.617551,0.177609,0.193644,0.362090
1769762650867,1.231705,6.561718,7.154540,0.102014,0.173333,0.307265
1769762650889,0.800997,6.940980,5.901299,0.100487,0.132252,0.218995
1769762650908,1.998605,6.644868,8.253444,0.128587,0.084147,0.105069
1769762650931,0.928415,7.097112,5.818747,0.110567,0.035277,0.040928
1769762650950,1.196411,6.537191,7.212565,0.006720,-0.030238,-0.033903
1769762650971,0.472582,6.714859,7.058228,0.022907,-0.049785,-0.085521
1769762650991,0.367298,6.120841,6.132804,-0.032070,-0.077122,-0.072846
1769762651012,-0.076570,7.479964,6.963114,-0.123547,-0.130878,0.023976
1769762651031,0.793221,8.458030,8.870791,0.166461,0.024129,-0.026878
1769762651051,0.342174,6.381060,6.457032,0.076969,-0.033292,0.082925
1769762651073,-0.253041,6.834500,7.441080,-0.092699,-0.038332,0.201127
1769762651091,-1.213759,7.530213,6.165108,0.200364,0.116675,0.235030
1769762651112,0.611366,7.222137,8.350353,0.220980,0.145233,0.384234
1769762651134,0.333799,7.841280,5.771488,0.189674,0.242513,0.580932
1769762651152,1.275973,6.511468,6.503094,0.317650,0.368810,0.624304
1769762651174,0.513260,7.149754,5.902495,0.205709,0.355371,0.673173
1769762651195,1.912464,6.351150,4.779663,0.353385,0.423177,0.650113
1769762651214,2.008176,6.308677,7.379465,0.012065,0.270308,0.627511
1769762651234,0.528216,8.921041,4.854439,0.168141,0.344375,0.509309
1769762651255,2.267200,5.779265,9.268001,-0.119729,0.228769,0.521220
1769762651275,0.591625,7.115058,4.681558,0.231518,0.384692,0.230296
1769762651296,2.984448,6.985248,7.478767,0.090103,0.286954,0.392328
1769762651314,1.789831,7.204789,5.261817,0.020922,0.244040,0.271529
1769762651336,1.674976,6.497112,7.950153,-0.099266,0.190437,0.193797
1769762651358,1.009173,8.337790,3.787838,0.186619,0.256105,0.025045
1769762651377,2.776871,6.949954,10.004392,-0.145691,0.079871,0.125227
1769762651398,0.635294,6.524629,2.805584,0.108429,0.166155,-0.009163
1769762651418,2.248655,7.846066,8.316854,-0.051160,0.127823,-0.011606
1769762651440,1.119243,7.823932,5.675776,-0.077885,0.100335,-0.087354
1769762651459,2.047658,7.061220,5.009374,-0.121409,0.098655,-0.133779
1769762651478,2.743969,8.720044,9.347562,-0.149815,0.052687,-0.186772
1769762651499,0.884746,6.384649,3.444468,-0.049327,0.077733,-0.244193
1769762651519,3.533601,7.734799,8.537591,-0.295964,-0.062003,-0.261297
1769762651542,0.008375,6.912266,2.534597,0.134696,0.113468,-0.593761
1769762651560,4.589434,7.225128,13.439887,-0.672409,-0.298255,-0.295048
1769762651582,1.434497,7.292127,3.264408,0.403934,0.208763,-0.672715
1769762651602,-0.152542,6.673583,1.746760,0.006872,-0.242666,-0.718988
1769762651623,2.567499,7.871789,10.929815,-0.646295,0.039248,-0.610254
1769762651643,0.154935,6.318846,3.626323,-0.069639,-0.197004,-0.863763
1769762651662,0.940978,7.539186,7.675577,-0.187230,-0.273973,-0.786030
1769762651683,-0.339183,6.876972,4.054638,-0.197920,-0.274431,-0.821155
1769762651702,2.048256,6.240481,8.551350,-0.268780,-0.373086,-0.772439
1769762651723,1.110270,8.399405,8.334201,-0.320093,-0.408974,-0.674242
1769762651746,0.968495,6.144769,7.191030,-0.264810,-0.376445,-0.755334
1769762651765,-0.026321,6.438488,6.667002,0.029016,-0.285427,-0.918283
1769762651787,-0.666401,7.776674,5.878567,-0.301309,-0.466395,-0.615141
1769762651806,0.971486,6.352346,7.494320,-0.192575,-0.390953,-0.615904
1769762651827,-0.553340,7.211967,5.086543,-0.122478,-0.365908,-0.579100
1769762651847,-1.085145,8.134998,5.103292,-0.199142,-0.352011,-0.506560
1769762651867,0.647259,6.760921,6.585048,-0.159130,-0.312610,-0.355676
1769762651889,-0.336790,6.723233,5.109873,0.050549,-0.224493,-0.379042
1769762651907,0.279960,8.078768,9.265608,0.125533,-0.207236,-0.274736
1769762651929,1.440479,9.278768,9.957731,-0.606283,-0.420428,0.073609
1769762651947,0.759721,4.920241,6.856633,0.301614,-0.059559,-0.244499
1769762651969,-0.367896,7.834101,6.853044,-0.214108,-0.304669,0.089950
1769762651987,0.110070,7.267601,7.972287,-0.000153,-0.095600,0.035583
1769762652009,-1.398605,6.078368,2.936592,0.090103,-0.048106,0.062766
1769762652028,0.564108,6.553343,10.259227,0.068264,-0.052229,0.036346
1769762652050,0.404387,8.162517,7.680363,-0.290008,-0.200058,0.278707
1769762652070,1.452443,5.067998,4.898706,0.184176,-0.040164,-0.059559
1769762652091,-0.790828,7.001997,6.518647,0.027947,-0.110872,-0.006261
1769762652110,-2.456831,7.501499,2.364707,0.067806,-0.137903,-0.039248
1769762652132,2.626721,6.318846,7.202396,0.045509,-0.170431,0.006261
1769762652151,1.591227,5.925825,7.284948,-0.110567,-0.173791,0.060628
1769762652173,-0.499502,5.939584,2.540580,0.043830,-0.126296,-0.097433
1769762652192,6.818348,9.464810,22.052853,-0.352469,-0.180816,0.101098
1769762652211,-1.159323,5.067998,1.015155,0.554513,-0.114995,-0.354149
1769762652233,0.971486,7.217351,8.570493,0.378736,-0.148440,-0.182038
1769762652252,-0.832104,8.986245,7.557730,-0.700051,-0.338114,0.139430
1769762652275,-2.203790,5.000401,0.137587,1.022130,-0.137903,-0.295353
1769762652293,0.481556,6.601200,1.943570,1.178205,-0.390801,-0.267101
1769762652314,1.386641,6.796813,19.181465,-1.746157,-0.325896,0.432340
1769762652334,3.187240,5.693123,10.708480,0.354607,0.037874,0.141568
1769762652356,-1.566701,10.673185,3.294319,0.721584,-0.158519,-0.213650
1769762652375,-0.822533,5.602794,0.071785,1.230282,-0.125991,-0.152716
1769762652397,2.358127,7.817351,-0.676571,0.272751,0.670577,0.541379
1769762652416,1.913660,5.231308,21.781864,-2.417192,-0.697760,0.227547
1769762652434,2.149951,10.137193,8.489137,0.580016,-0.101098,0.207847
1769762652455,-3.506083,8.033304,0.440279,1.030682,-0.100029,-0.369879
1769762652476,2.721836,3.948157,-1.951347,1.673006,0.062919,0.256410
1769762652498,4.264010,7.354939,13.926826,-2.549444,-1.180344,0.680045
1769762652517,3.098705,3.541976,17.926430,0.600022,-0.004123,0.219606
1769762652539,0.117248,8.299505,2.462214,0.564897,0.087659,-0.374307
1769762652558,-3.050849,7.963314,-0.175872,0.930958,-0.215635,-0.518930
1769762652580,0.812962,7.687541,5.075177,-0.231212,0.094226,0.291535
1769762652598,2.325225,3.163311,17.563318,-2.101375,0.209527,0.327271
1769762652619,0.781855,6.071189,7.289734,1.302822,0.434936,-0.211970
1769762652639,-1.986641,7.731808,0.547956,0.363770,0.025045,-0.095753
1769762652661,1.189831,2.856432,3.896113,-0.068417,0.038179,-0.003360
1769762652680,2.694916,10.523036,14.030913,-0.720515,-0.214414,0.323300
1769762652702,-0.399003,11.789437,6.056832,0.516181,-0.004734,-0.073151
1769762652722,2.431706,4.325027,6.477969,-0.033750,-0.314901,0.342848
1769762652742,-1.072583,11.374881,-0.299103,1.107040,0.369726,-0.372780
1769762652764,3.870391,1.710868,9.668200,-1.224326,-0.512210,0.361327
1769762652782,2.310869,7.910672,7.999804,0.760832,1.170875,0.020464
1769762652803,0.653241,8.474779,11.633904,0.169820,-0.419511,-0.272904
1769762652823,-0.801596,5.543572,1.197608,0.100793,0.124769,-0.306196
1769762652846,3.125625,6.217750,8.929416,0.407294,-0.091782,-0.167682
1769762652864,2.270789,1.194617,12.208779,-0.343917,-0.168904,-0.037874
1769762652883,-1.186840,10.779666,5.260621,0.879187,0.017410,-0.448986
1769762652907,1.094118,7.721040,7.296314,-0.713185,-0.794888,-0.569937
1769762652926,1.782653,8.720044,0.322433,0.715628,-0.246179,-0.403171
1769762652944,3.129812,3.814159,10.833505,0.436768,-0.177609,-0.185092
1769762652967,1.473979,5.682355,9.216555,-1.277318,-0.625984,0.249386
1769762652985,3.025126,7.512267,10.682158,-0.296880,-0.217315,-0.363006
1769762653008,-1.755734,7.601399,0.219541,0.550389,0.115148,-0.521068
1769762653027,-1.177269,8.165507,1.548754,0.779311,-0.472504,-0.631329
1769762653047,3.717848,5.259424,15.918851,-0.836274,0.211359,0.058643
1769762653070,1.731805,4.067799,5.514260,0.354760,-0.031154,-0.162795
1769762653087,1.354338,8.514261,9.037691,0.078191,-0.203265,-0.137139
1769762653110,0.467199,6.333802,4.909474,0.080329,-0.087506,-0.246484
1769762653128,-1.719841,7.257431,9.017352,0.033445,-0.118966,-0.265115
1769762653150,-0.358325,6.535397,5.977271,-0.447000,-0.324675,0.075136
1769762653170,1.142573,6.291927,5.998208,-0.086896,-0.176845,0.100793
1769762653192,0.280558,8.212168,5.113462,0.246484,-0.056658,0.037568
1769762653211,1.567897,9.116056,8.231310,0.406683,-0.076205,0.120951
1769762653230,2.277967,2.947958,12.724433,-0.487776,-0.181580,0.485943
1769762653251,-1.256830,9.205787,4.675575,0.737925,0.119271,0.135612
1769762653270,0.532403,8.026724,9.682557,0.087201,-0.225562,-0.126602
1769762653293,0.664607,4.797011,5.215755,-0.044288,0.097891,0.563065
1769762653310,-1.855036,8.507083,1.620539,0.329409,0.382707,0.314901
1769762653332,3.678367,2.181656,14.526228,-0.185397,0.069028,0.556956
1769762653351,0.546760,7.959724,1.498505,0.371864,0.355371,1.094517
1769762653373,2.254637,7.832307,9.136993,-0.031612,-0.001833,0.501062
1769762653396,-2.311467,5.176872,5.721837,-0.567341,-0.342390,0.522289
1769762653411,2.860021,9.446864,10.007980,-0.218690,0.147218,0.626900
1769762653435,2.924628,1.648057,6.981060,0.131947,0.153785,0.718835
1769762653454,1.520639,5.544768,3.994219,0.253509,0.200211,0.122020
1769762653473,2.568097,10.923834,8.070991,0.733649,0.338572,-0.708145
1769762653496,-2.925226,5.973083,1.944767,0.565355,-0.064446,-0.691652
1769762653514,0.049651,8.472386,13.074383,-0.283136,-0.235488,0.286037
1769762653536,2.709872,3.004189,6.460023,0.265879,-0.122631,0.816726
1769762653555,1.813760,5.903692,5.672186,0.622319,0.571922,0.334907
1769762653575,1.995614,11.573485,11.648261,-0.190590,1.413388,0.682336
1769762653595,-2.783451,6.155536,0.999602,0.746171,0.188910,-0.184634
1769762653617,-1.919642,9.332606,10.585249,-0.172264,0.152105,0.108887
1769762653636,1.198206,4.463212,2.691327,-0.376445,0.372780,1.263726
1769762653659,1.581058,5.563313,4.036094,0.173791,0.296575,0.868039
1769762653677,2.160121,9.622736,8.975478,-0.338572,0.051007,0.644004
1769762653699,2.655435,3.572484,9.044271,0.465937,0.566730,0.620639
1769762653720,5.266603,9.437891,13.089936,-0.222049,0.255800,0.518471
1769762653737,3.277569,6.958328,1.289133,0.969748,0.763276,0.249386
1769762653759,-0.067597,7.802995,-0.426521,0.622471,0.205098,-0.160505
1769762653778,-1.547558,6.744171,7.303493,-1.167210,-0.775646,-0.073456
1769762653800,5.199006,6.332007,15.231512,-0.318261,-0.024435,0.299935
1769762653819,4.583452,6.096314,7.534998,0.131947,0.172417,0.030696
1769762653841,-0.316451,7.459026,-0.295514,1.089783,0.227547,-0.274889
1769762653860,-1.289731,8.127820,0.558126,0.463646,-0.299935,-0.579405
1769762653882,1.872982,6.845866,20.534605,-2.558607,0.708756,-0.087812
1769762653901,1.813161,6.940382,0.660419,-0.036652,0.344833,-0.098655
1769762653923,2.830709,3.318247,6.008378,-0.380416,0.413097,0.081856
1769762653942,1.180858,7.998608,3.025126,0.585514,-0.307876,-0.429438
1769762653961,2.407180,9.618548,13.922639,-0.446389,-0.566577,-0.409127
1769762653983,1.675574,5.832505,7.567302,-0.268322,-0.215635,-0.467006
1769762654002,0.002393,6.006583,2.423929,-0.020006,-0.187994,-0.524427
1769762654027,3.726223,6.260222,5.105087,-0.631940,-0.510072,-0.054672
1769762654043,-0.445663,5.572286,5.471787,-0.861777,-0.124158,-0.416152
1769762654066,-0.285942,9.363713,11.525628,-0.421802,-0.451124,-0.639270
1769762654084,-1.608575,7.269395,1.179662,-0.254883,-0.290619,-0.327271
1769762654107,-2.949752,6.026324,-1.151546,0.831234,-0.513126,-0.788016
1769762654125,10.272388,11.108679,21.479172,1.599702,1.579085,-0.105069
1769762654147,-0.485743,-1.457229,-0.190828,0.367741,0.312915,-0.049785
1769762654167,1.328017,12.590434,6.926025,1.003040,-1.918268,-0.515875
1769762654185,-0.706481,3.221338,2.230709,-1.649640,0.473878,-0.284052
1769762654207,1.244268,6.913463,5.382056,0.092851,-0.883005,-0.502284
1769762654226,0.154935,10.133006,10.431510,-0.333227,-0.021991,0.124311
1769762654247,-0.281157,7.850851,5.365306,0.771370,-0.095295,-0.314290
1769762654269,1.925026,6.013762,10.908280,-0.514501,0.234419,0.133779
1769762654289,-2.376671,5.885746,-0.202194,0.535270,0.372475,0.139888
1769762654307,4.253242,6.753742,7.203593,1.173013,-0.239612,-0.152411
1769762654331,3.842873,7.226923,13.762320,-1.886961,-0.861777,0.856280
1769762654350,4.260421,7.570292,4.822734,1.064126,1.495092,0.334907
1769762654369,-1.025324,5.134399,6.744171,0.060170,0.292146,0.042608
1769762654390,-0.291326,5.019544,0.310469,0.851698,-0.454636,-0.847728
1769762654411,5.035097,8.032107,9.918848,0.644615,-0.118966,-0.570395
1769762654432,4.043870,4.958527,10.488339,-2.927722,-1.541517,-0.191201
1769762654451,4.913661,5.303093,9.832108,1.013730,-0.176693,-0.333379
1769762654469,2.191227,6.155536,5.503492,-0.214108,-0.731511,-0.628122
1769762654492,-2.856432,8.799605,-0.593420,0.171042,-0.166461,-1.548695
1769762654511,-0.932004,9.268599,6.321837,-0.314595,-0.223424,-0.799469
1769762654533,4.316652,5.117650,8.836096,-0.796262,-0.847269,-0.538172
1769762654551,7.381259,5.635695,23.759533,0.446695,-0.122020,-1.126893
1769762654576,0.533001,4.640281,8.182257,0.152563,-0.474947,-1.096808
1769762654592,-3.218346,6.984051,0.815354,1.338863,-0.768926,-1.681711
1769762654615,-0.830908,6.067002,-2.909074,1.801288,-0.590554,-1.590692
1769762654635,5.429315,3.945765,25.138397,-3.629453,-2.750877,0.200211
1769762654654,-0.879362,6.373881,-0.228515,2.140165,-0.397215,-1.024878
1769762654673,-14.220545,12.731611,-17.127226,4.088365,2.059530,-2.442085
1769762654695,5.639883,5.814559,5.280960,-2.848615,-1.173777,1.197142
1769762654714,7.877172,2.073979,28.569105,-2.027460,0.361021,0.004276
1769762654736,3.015555,5.534000,4.133601,0.622624,-0.427453,-0.454331
1769762654755,2.488536,6.847660,9.711869,-0.324522,-0.613766,-1.102153
1769762654778,2.264807,6.693922,5.231308,-0.179747,-0.372017,-0.957378
1769762654796,0.133400,7.119246,3.157330,-0.153480,-0.512210,-1.030834
1769762654818,-0.538385,8.298309,13.735998,-0.713948,-0.888808,-0.813061
1769762654836,0.742373,1.808376,7.268797,0.154396,-0.310777,-0.676380
1769762654860,-0.647857,5.940182,12.598211,-0.053603,-0.337503,-1.259298
1769762654877,2.346163,9.289536,6.684350,0.572991,-0.276264,-0.931416
1769762654899,-3.455236,8.057830,-0.290130,0.962876,-0.361785,-2.010356
1769762654918,-3.112464,6.061020,1.525424,-0.034972,-0.697913,-0.900109
1769762654939,3.899105,2.116452,16.738991,-2.269210,-0.387746,0.088117
1769762654958,3.306881,6.544968,14.271393,0.155160,-0.277485,-0.079260
1769762654980,-1.951945,9.416953,7.514659,0.474184,-0.442113,-0.734718
1769762654999,-3.701697,3.574279,0.705883,1.117577,-0.679740,-0.908661
1769762655019,-1.384846,6.552146,0.585045,0.323300,-1.067944,0.052229
1769762655041,0.436092,8.968299,12.715460,-1.800218,0.062308,0.074678
1769762655063,2.138585,1.156930,8.848060,0.228769,-0.068417,0.643851
1769762655082,5.558527,8.236095,15.418153,0.026114,-0.109039,-0.091935
1769762655101,-2.325824,6.582057,3.592823,-0.136834,-0.175929,-0.282678
1769762655124,-2.803790,6.050252,0.222533,0.899346,-0.554054,-1.113606
1769762655142,-10.825727,5.643472,-1.694717,1.247386,0.647059,-0.743728
1769762655163,15.314663,8.459227,8.578269,1.222646,0.645073,0.365144
1769762655184,2.340779,-0.346361,7.121040,-5.691427,-1.845728,2.288147
1769762655204,5.202595,0.354138,3.148356,0.884380,-0.848491,-0.202349
1769762655223,2.900699,14.536996,3.415156,0.344222,-0.342390,-0.273362
1769762655244,-3.275176,4.640281,8.078169,-1.974620,-0.018631,-1.561218
1769762655263,-4.867001,4.260421,6.016154,-0.934470,-1.180649,-1.386205
1769762655286,-2.394019,9.455837,11.565110,0.142637,-0.567035,-1.152091
1769762655304,1.258625,2.771487,10.835299,-0.855058,-0.692873,0.358119
1769762655327,-1.091127,7.904690,3.541976,0.549473,-0.379652,-0.883921
1769762655346,2.877967,9.328419,9.738190,0.347124,-0.707992,-0.586430
1769762655371,-0.300299,5.118248,7.553543,0.203876,-0.257021,-0.155160
1769762655387,-2.199004,8.566903,0.932603,0.755029,-0.163101,-0.092241
1769762655409,-0.330808,7.742576,5.329414,0.476169,-0.302531,0.117897
1769762655427,2.630908,1.514657,11.979667,-1.096197,-0.972039,-0.296269
1769762655447,1.849652,10.705488,10.316655,-0.328340,-0.086132,0.288481
1769762655467,-0.486939,7.974082,3.085545,0.580016,-0.034056,-0.397978
1769762655488,2.109871,6.059225,11.723635,0.659581,-0.247248,-0.311541
1769762655507,-3.591627,1.558326,9.818948,-1.191034,-0.362243,0.115148
1769762655529,-3.467200,8.769695,0.497109,0.922406,0.297491,-0.126144
1769762655549,0.451047,8.539984,11.612967,0.379958,-0.484874,-0.003665
1769762655570,-0.692124,1.586441,10.742578,-0.607505,0.133474,0.494037
1769762655589,-3.705884,8.012366,1.800599,0.501367,0.088270,0.537866
1769762655611,-0.425324,8.833105,12.151352,0.866054,0.044593,0.093768
1769762655630,-3.405585,6.975078,4.388437,-0.401033,0.379347,0.809549
1769762655652,4.861618,6.368497,5.137989,0.654389,0.181121,1.297629
1769762655671,1.755135,1.774278,8.714062,0.239917,0.268628,0.438448
1769762655693,-2.021935,10.878968,2.480161,0.755945,0.352316,0.174860
1769762655712,4.435695,6.700501,14.693128,-0.345139,-0.198073,0.834899
1769762655731,-0.993021,3.513262,6.435496,-0.513890,0.477544,0.971428
1769762655753,-0.044865,8.955737,0.709472,0.748157,0.457385,0.158825
1769762655774,1.259821,11.236695,9.053843,-0.146760,0.658818,-0.073456
1769762655794,0.203390,-1.542174,1.078565,-0.003665,0.297797,-0.022449
1769762655813,5.266603,1.691127,17.175083,-0.946077,0.936761,0.925766
1769762655835,1.109073,19.257437,4.850252,-0.341932,-0.067348,0.339335
1769762655855,-5.179265,4.827520,1.171885,1.758985,-0.571311,-1.741881
1769762655874,1.179063,11.308480,4.177270,-0.533590,-0.174402,1.076955
1769762655896,1.267598,0.862014,9.169296,-2.177733,0.242208,0.211359
1769762655915,5.199604,3.416353,12.392428,0.220369,0.072998,0.249538
1769762655936,0.810569,11.554342,6.968498,0.239306,-0.101862,0.000000
1769762655957,-1.733002,7.132406,1.853839,0.295964,0.205709,-0.200822
1769762655977,4.929813,6.690332,8.846864,-0.442572,-0.269544,0.171195
1769762655995,0.723829,7.876574,6.750153,0.162032,0.074526,-0.611476
1769762656017,-0.081954,5.504688,4.779663,-0.051160,-0.195935,-0.517402
1769762656036,5.534599,1.646262,12.388241,-0.422718,-0.103694,0.235030
1769762656058,2.403590,10.959726,5.189434,0.398437,-0.007483,-0.974940
1769762656079,-1.533201,8.486146,3.094518,-0.094379,-0.153632,-1.054200
1769762656098,-0.668794,6.754938,0.370289,0.554054,-0.552985,-1.388190
1769762656120,2.285146,6.874579,19.301105,-2.418108,-0.719751,-0.252134
1769762656139,-0.559920,3.364309,3.625126,0.540463,-0.239612,-0.784198
1769762656161,1.309472,8.759525,9.783653,0.790459,0.083688,-0.738230
1769762656180,0.884148,5.579464,7.042675,-0.133779,-0.415693,-0.419206
1769762656198,-1.028914,8.021339,1.750948,0.601549,-0.505338,-0.522595
1769762656222,0.655633,7.691729,9.951151,-0.753502,-0.389732,-0.113774
1769762656241,0.789033,4.657031,9.245269,-0.247248,-0.461814,-0.589026
1769762656260,0.263211,7.186244,12.558729,0.138361,-0.191201,-0.176693
1769762656282,-2.749951,6.957730,-0.157328,0.979522,-0.335365,-0.557720
1769762656301,1.671387,3.216552,1.485345,1.037248,-0.072082,-0.107512
1769762656323,-0.867996,13.072588,9.824331,-1.646891,-1.354134,-0.281151
1769762656342,1.626521,4.320241,9.285947,-1.998444,0.102931,0.050854
1769762656363,-0.064606,7.631908,7.784450,-0.014050,0.321315,0.108276
1769762656386,4.250251,2.861218,8.059625,0.331547,-0.097586,-0.151953
1769762656404,2.786442,11.172688,4.939982,0.393397,0.086285,0.242971
1769762656422,0.489332,8.527422,10.134202,0.599869,0.245109,-0.646906
1769762656447,-0.613161,5.448457,4.695316,-0.964097,-0.403629,0.265268
1769762656465,-2.526222,7.315457,0.367298,0.950200,-0.064294,-0.859487
1769762656483,3.862614,4.539185,12.928421,0.727693,-0.158978,-0.191964
1769762656507,2.676372,9.911670,5.163711,-1.971413,-0.722653,0.729525
1769762656525,2.670988,6.538986,8.694321,0.369420,0.436463,-0.341168
1769762656547,-0.194417,7.429714,3.813561,-0.390648,-0.036499,-0.383165
1769762656566,2.627319,4.085146,9.027522,0.444404,-0.028405,-0.390190
1769762656588,0.287737,4.445266,11.270793,-1.023351,-0.287412,-0.083841
1769762656607,2.559722,8.667402,9.980463,-0.197920,-0.385303,-0.372933
1769762656629,-3.716652,8.697910,0.149551,0.418137,-0.011912,-0.953560
1769762656647,1.092324,1.275374,2.432902,1.010065,-0.606436,-1.144150
1769762656667,0.159123,9.698709,7.913064,0.224493,0.778089,0.128587
1769762656689,1.125225,7.698308,14.023137,-2.010509,0.199905,-0.184023
1769762656709,0.193819,7.712068,1.034298,0.594524,0.043371,-0.446084
1769762656729,3.439682,3.993023,8.034500,0.299324,-0.225715,-0.392175
1769762656749,1.466202,9.161520,11.851650,-0.839634,-0.354607,0.102167
1769762656770,2.603391,3.828516,10.296316,-0.351705,-0.348651,-0.052687
1769762656790,-1.939383,4.582854,-0.064008,0.590554,-0.042455,-1.216843
1769762656808,0.304487,12.128021,8.524430,0.963945,-0.697608,-1.792125
1769762656830,1.390230,2.772085,6.670591,-0.717155,-0.489914,-0.463952
1769762656849,-0.829711,7.895717,6.981658,-0.876591,-0.275347,-0.025045
1769762656871,0.589233,8.457432,9.141779,-0.069180,-0.412028,-0.524275
1769762656890,3.224329,6.941578,6.676573,0.082925,-0.325285,-0.522900
1769762656913,0.616750,3.182454,6.836893,-0.130878,-0.425773,-0.620180
1769762656931,-1.485345,9.803992,1.292722,0.185397,-0.460745,-0.603993
1769762656953,3.558726,5.505885,13.886148,-0.889419,-0.666148,-0.214261
1769762656974,-2.548356,4.154538,8.341380,0.667522,0.119882,-0.615752
1769762656994,1.509871,10.430912,4.763512,-0.023976,-0.617584,-0.611018
1769762657013,4.971089,6.537790,11.690135,-0.509919,-0.799775,-0.421344
1769762657032,-1.878964,2.609971,8.451449,-0.029322,-0.376293,-0.921948
1769762657054,-4.320241,10.493126,0.326022,1.075122,-0.564286,-1.546404
1769762657074,1.106681,9.305089,16.000206,0.928514,0.121562,-0.020922
1769762657095,0.739980,2.350948,4.217350,1.209054,-2.068846,-0.207083
1769762657115,2.900101,5.588437,5.730810,-0.067959,-0.250760,0.212276
1769762657134,0.711267,8.165507,3.704688,-0.723264,-0.013286,-0.468075
1769762657158,1.524826,8.953344,15.947565,-0.845437,-0.553443,-0.188605
1769762657175,-2.096113,4.792225,0.750748,0.917061,-0.374613,-1.206153
1769762657197,-2.117050,6.869195,1.307079,0.911716,-0.476933,-1.504560
1769762657216,-2.557927,3.539583,14.796617,-1.419192,-0.526107,0.363465
1769762657238,-0.657428,9.640682,9.159725,0.705243,-0.729983,0.182954
1769762657257,2.395814,6.485147,9.963714,0.008552,-0.073151,0.865137
1769762657279,-2.682354,3.176472,5.421538,0.623998,0.199142,0.031307
1769762657298,-1.977070,8.526225,3.237489,0.576504,-0.047495,0.513432
1769762657316,1.377069,8.526225,8.108678,0.199600,0.499993,0.785419
1769762657339,1.441676,5.368298,13.220943,0.049785,0.098349,0.751211
1769762657357,-2.332404,6.329614,0.129811,0.987157,-0.015272,0.445626
1769762657380,4.437490,6.780063,12.060425,-0.032223,0.814283,1.341612
1769762657399,0.259621,3.303890,10.238290,0.416304,0.159283,1.032820
1769762657421,-2.071586,9.360723,-0.888934,1.535867,-0.099113,0.078649
1769762657440,-1.709074,8.656634,7.310073,-0.194866,-0.084452,0.578489
1769762657462,1.092324,3.273980,6.742376,-1.037096,-0.361327,0.852004
1769762657481,2.620739,7.856833,12.365509,0.154702,-0.363770,0.802829
1769762657503,0.151944,4.969295,5.206782,0.217621,0.117897,0.487165
1769762657522,0.368495,6.296114,5.544768,0.073609,0.123853,0.582154
1769762657540,3.830311,3.966104,10.354342,0.311541,0.161574,0.456163
1769762657562,-1.338186,9.701101,5.611169,0.481820,0.184176,0.068570
1769762657581,2.988636,8.353942,9.075976,0.311999,0.076358,0.328187
1769762657603,1.153939,2.899503,5.087141,0.435394,0.371558,0.182801
1769762657622,1.620539,10.512866,10.291531,0.068264,-0.204487,0.326049
1769762657643,0.491127,0.372682,3.777669,-0.167988,0.022602,0.375682
1769762657666,1.328615,9.248857,5.114658,0.567341,0.302836,-0.229838
1769762657684,1.219741,9.223733,11.547164,-0.418748,-0.293368,0.003054
1769762657709,2.452045,4.262215,5.536393,0.211817,0.092851,-0.132863
1769762657727,2.620739,4.691129,8.398808,0.222660,0.102167,-0.134543
1769762657745,-0.077767,8.405388,6.614958,-0.172569,-0.048716,-0.080787
1769762657767,0.087936,9.920045,8.566305,-0.531605,-0.324369,-0.104000
1769762657787,-0.181256,2.395814,1.403989,0.741284,-0.147066,-0.484721
1769762657807,3.626921,7.048657,7.628917,0.643546,-0.231060,-0.051160
1769762657827,1.990828,7.152147,14.437096,-1.148426,0.271988,0.117591
1769762657848,0.155533,8.702098,2.565704,-0.005956,-0.076969,-0.198836
1769762657867,1.835893,4.960321,11.718250,0.059559,-0.030391,-0.264810
1769762657889,1.490728,7.097112,5.922236,-0.034514,-0.107512,0.109192
1769762657908,-2.051247,7.970492,0.978066,0.271682,-0.112857,-0.134390
1769762657927,2.318047,3.723830,11.910275,-0.006872,0.014508,-0.133474
1769762657949,0.780060,9.027522,7.053443,-0.236252,0.219606,0.626442
1769762657968,1.386641,6.019145,7.942377,-0.296117,-0.176082,0.147677
1769762657990,-0.677169,5.762515,4.529613,0.706771,0.291077,-0.024435
1769762658011,0.285344,7.773683,8.266006,-0.558941,-0.019242,0.509461
1769762658031,-0.863809,6.199803,7.003194,0.394313,0.285732,0.430202
1769762658049,-0.409771,7.328019,2.903092,0.252898,0.275805,0.602465
1769762658072,4.100101,5.505287,10.662417,-0.104152,-0.145844,1.032209
1769762658091,1.338784,7.595417,7.704291,-0.950506,0.436616,0.784961
1769762658113,1.488336,7.311868,9.336794,0.046273,0.374155,0.602465
1769762658131,0.592224,5.901299,3.958925,0.414624,0.353385,0.525191
1769762658153,2.316252,5.639285,10.753345,-0.033903,0.163254,0.640950
1769762658173,-0.893121,9.230911,2.260619,0.860250,0.200975,0.212428
1769762658191,1.656431,3.738187,2.206781,0.775798,0.304669,0.514195
1769762658217,3.446861,8.526225,10.831710,-1.123533,-0.874911,0.803134
1769762658233,3.165704,4.839484,11.034502,0.456927,0.525191,0.373086
1769762658254,0.913460,8.551350,3.488735,0.291230,0.569173,0.167072
1769762658273,1.828117,4.865207,9.438489,-0.172111,0.208763,0.384081
1769762658295,1.565504,7.068398,5.553741,0.068722,0.239306,0.296422
1769762658314,3.381058,8.083553,9.863214,0.013134,0.327729,0.292146
1769762658336,-0.855434,3.145365,7.108478,0.060017,0.370948,0.112246
1769762658355,2.560918,8.456235,3.505485,0.342542,0.334296,0.227089
1769762658374,4.184449,5.325825,9.467203,-0.200975,0.122020,0.235641
1769762658396,1.061815,9.815957,3.056233,0.718530,0.567035,-0.338266
1769762658415,2.573481,2.824727,10.454242,0.387288,0.448833,0.074373
1769762658437,1.735993,9.504292,0.672981,-0.197309,0.384998,-0.189215
1769762658456,2.053042,3.766303,9.005388,0.394771,0.046426,-0.440434
1769762658478,3.309872,7.703094,1.039083,-0.169820,0.070097,-0.584598
1769762658497,4.719244,3.890131,15.603597,-1.251967,-0.280845,-0.558330
1769762658516,4.489533,7.884949,5.947959,-0.248927,-0.407294,-1.118341
1769762658538,1.596611,7.491330,9.954741,-0.346971,-0.955545,-1.333518
1769762658557,2.962913,5.112864,5.662615,-0.373697,-0.460134,-1.392619
1769762658579,2.618346,6.675377,9.573085,-0.663552,-0.668439,-1.429424
1769762658599,0.988834,5.402994,1.268196,-0.065515,-0.461050,-1.721112
1769762658618,0.699901,10.305289,7.365108,-0.725249,-1.092684,-1.678504
1769762658640,2.954538,5.480760,10.626525,-0.672562,-0.744950,-1.361618
1769762658659,-0.198006,2.866003,10.080363,0.089034,-0.265268,-1.368795
1769762658679,-1.638485,9.086744,4.844868,0.215788,-0.403476,-1.435227
1769762658701,-3.047858,10.480563,-0.117847,0.850782,-0.485790,-1.189812
1769762658722,2.598605,5.441278,13.330415,-1.326951,0.531758,-0.047800
1769762658741,-2.426920,7.027122,9.363713,1.185688,0.573449,-0.282983
1769762658760,-0.081954,4.594220,7.210771,-0.159741,-0.024129,0.202654
1769762658782,-1.911865,7.987840,1.868794,0.098197,-0.151342,0.006414
1769762658801,4.107878,3.774080,16.555941,-0.396757,-0.080329,0.183565
1769762658823,0.580858,5.773881,0.049651,0.920879,0.179900,-0.306501
1769762658843,2.452643,8.380263,8.812167,0.437379,-0.226784,-0.225409
1769762658862,2.339582,6.851848,8.622537,-1.032362,-0.762359,-0.146608
1769762658885,2.253441,5.015954,4.415954,-0.063530,-0.231365,-0.217162
1769762658904,2.079363,6.927820,10.602597,0.026114,-0.292452,-0.664315
1769762658927,1.204188,8.293523,5.302495,-0.381332,-0.368657,-0.493426
1769762658944,-0.400200,2.938386,7.276574,0.041233,-0.281151,-1.121548
1769762658965,2.192424,9.448060,9.611370,-0.429743,-0.563981,-0.452193
1769762658987,0.775275,3.656233,3.192624,0.239154,-0.364075,-0.914312
1769762659007,-2.155933,7.422536,11.161920,-0.116675,-0.549167,-0.828943
1769762659025,1.119243,5.260621,6.834500,-0.285732,-0.409890,-0.707076
1769762659047,3.326622,5.480162,10.597812,-0.350636,-0.581696,-0.404851
1769762659067,-2.091327,4.945964,4.614559,0.008705,-0.344986,-0.680198
1769762659087,-3.655037,9.209974,1.140778,0.216704,-0.398742,-0.781907
1769762659107,4.668995,6.500701,14.821742,0.272598,-0.530231,-0.789390
1769762659132,-0.803390,8.898309,5.444868,-0.641103,-0.348804,-0.150425
1769762659147,3.284747,5.651847,4.106682,0.129656,-0.457385,-0.606741
1769762659167,4.917849,5.754738,15.996617,-0.269697,-0.670577,-0.220675
1769762659187,0.601197,4.673182,4.244269,0.101862,-0.358730,-0.493426
1769762659208,-2.060220,5.931808,7.198209,0.290008,-0.478002,-1.546404
1769762659229,-2.252244,9.051450,6.215955,-0.487776,-0.733343,-1.015715
1769762659248,4.833502,5.231308,14.213964,-0.995404,-0.912785,-0.136223
1769762659271,-1.124627,2.560918,1.751546,0.613766,-0.132863,-0.558483
1769762659290,-4.000201,9.661619,6.903892,0.463799,-0.303294,-1.343750
1769762659309,2.246262,7.619346,11.662020,-0.386830,-0.971122,-0.651793
1769762659331,1.022932,-0.525823,6.686743,-0.240833,-0.439517,-0.360563
1769762659351,-2.116452,10.066605,7.271190,0.118660,-0.682489,-0.786641
1769762659372,-2.042872,9.430114,7.440482,0.085979,-0.496175,-0.519235
1769762659392,3.603591,3.181258,7.211369,-0.271682,-0.667370,0.158367
1769762659411,0.604786,6.476174,7.600801,0.266490,-0.344680,-0.353385
1769762659439,-1.075574,8.633903,11.038689,-0.102167,-0.278860,0.056047
1769762659453,-0.281755,4.821537,5.911469,0.259159,-0.218079,-0.071624
1769762659473,-2.964109,8.338987,4.381258,0.094684,-0.132558,0.366366
1769762659494,2.234896,4.316652,11.398211,-0.095295,-0.213497,0.657596
1769762659513,-5.042874,8.781061,7.518847,0.501215,0.021838,0.031307
1769762659537,0.494716,4.814957,7.600801,0.646600,0.356440,1.232572
1769762659554,0.253639,4.543970,8.950353,0.226936,0.195019,0.987768
1769762659574,-2.204986,6.202196,4.387838,0.378278,0.311999,1.046870
1769762659595,-0.518644,7.310073,6.874579,0.352774,0.388510,1.266170
1769762659614,0.189033,7.941778,12.145370,-0.031001,0.490219,1.422857
1769762659636,-1.119841,3.043670,1.710868,0.933860,0.785878,1.431714
1769762659655,4.251448,5.934200,10.018748,0.411876,0.541379,1.425911
1769762659675,2.285146,6.731010,12.760923,0.067806,0.380416,1.301600
1769762659697,0.209372,6.397810,-0.220738,1.076802,0.392786,0.903164
1769762659718,-0.661017,7.082157,2.663212,0.440281,0.817337,0.952338
1769762659738,2.925824,4.910670,16.584654,-0.805883,0.768468,1.174846
1769762659761,3.232703,9.669994,3.200999,1.213330,1.014799,1.101542
1769762659779,-1.150349,5.353940,0.847657,0.732885,0.395382,0.861472
1769762659799,-0.336790,7.664809,11.807981,-0.207999,0.757778,0.646448
1769762659821,1.636092,4.811368,14.900106,0.127976,0.394924,1.011439
1769762659840,0.618545,6.441479,0.346361,0.959516,0.205403,0.701731
1769762659858,3.412763,5.572884,5.971887,0.316886,0.099266,0.849255
1769762659882,4.076173,5.535197,11.560923,-0.710130,0.350484,0.622166
1769762659901,4.327420,8.632706,5.169095,-0.261603,0.031001,0.426384
1769762659920,-1.231705,4.256233,11.062617,-0.441808,-0.290008,-0.173333
1769762659942,3.368496,7.814361,1.741975,0.469755,0.270613,-0.065973
1769762659963,2.643471,4.624728,1.788635,0.293368,0.252593,-0.197004
1769762659982,1.971686,8.925827,10.841880,-0.516792,-0.968832,-0.252440
1769762660004,3.957729,4.347160,10.081560,-0.175318,-0.296117,-0.421344
1769762660023,3.628716,9.304491,0.732204,0.429438,0.038332,-0.634230
1769762660042,-1.493720,7.127620,11.033903,0.210901,0.241292,-1.233336
1769762660064,0.297906,5.526822,10.785049,-0.427453,-0.322384,-0.633925
1769762660083,3.056831,4.098905,5.234898,-0.225562,-0.381943,-0.357967
1769762660106,-2.134398,8.754142,1.405185,0.048258,-0.324827,-0.710588
1769762660124,5.126623,6.091528,16.441683,-0.122173,-0.430965,-0.811228
1769762660147,1.901098,7.088737,3.748955,-0.289855,-0.248775,-0.300087
1769762660168,-1.055833,4.077968,6.330212,0.074067,-0.477849,-0.696691
1769762660186,-1.386641,10.262816,4.250251,-0.280692,-0.372322,-0.451429
1769762660208,3.172285,6.134599,13.229917,-0.677754,-0.522748,-0.092393
1769762660227,0.945763,7.933403,6.062814,0.489455,0.083688,-0.129809
1769762660247,-1.244268,6.390631,4.942974,-0.107207,-0.191659,0.267101
1769762660269,-3.828516,8.957532,1.195813,0.516028,0.197767,-0.006720
1769762660288,-0.351745,8.024929,10.728819,0.203723,0.131641,0.524275
1769762660307,1.603789,4.607380,13.862220,0.044899,0.570700,0.906829
1769762660331,2.377867,6.089734,2.621337,0.343306,0.508392,1.503186
1769762660349,-0.611366,4.633701,2.462813,1.010676,1.048091,1.117424
1769762660368,-1.339981,10.079765,17.572889,-0.452345,0.056047,1.170875
1769762660391,6.211768,3.513860,18.746569,0.689361,0.739299,1.609629
1769762660411,5.557929,5.234898,7.843673,0.991281,0.949437,1.564425
1769762660431,3.105884,6.848258,7.320841,0.757167,0.787710,1.437670
1769762660451,-1.880160,7.974082,1.998605,0.938288,0.926071,1.037859
1769762660470,1.051047,6.694520,5.033302,0.135154,0.620333,1.181871
1769762660493,1.240080,4.880760,3.537788,0.249538,0.701120,1.040303
1769762660511,2.925824,7.225726,1.094118,0.700051,0.735787,0.887587
1769762660534,1.455434,4.013362,6.239285,-0.373086,-0.150578,0.716544
1769762660553,1.595415,9.849456,6.123831,0.139735,0.297949,0.018479
1769762660576,1.365704,3.162713,11.516057,-0.253509,0.131641,0.390953
1769762660595,4.675575,5.720641,4.372883,0.473420,0.550847,0.303447
1769762660615,3.511467,9.445667,10.343575,-0.006872,0.253662,0.132558
1769762660635,-0.440279,5.038686,8.697910,0.092546,0.278249,0.062308
1769762660656,2.419742,6.323632,8.285747,0.190590,0.297644,0.139277
1769762660674,3.564708,5.197211,5.416752,0.291077,0.340557,0.297949
1769762660697,2.593820,9.896714,0.768096,0.477696,0.676380,0.128587
1769762660716,-1.631905,5.114060,3.818945,-0.116217,0.162795,0.191353
1769762660737,4.222734,8.105088,15.562919,-0.432492,0.072235,0.506254
1769762660756,2.242075,7.272985,7.713264,0.850629,0.823598,0.346055
1769762660777,0.534796,3.105884,4.133003,0.303447,0.524580,0.507476
1769762660798,0.999003,9.136993,2.765505,0.393550,0.498466,0.264963
1769762660816,1.366900,7.454241,8.057830,-0.258549,0.341779,0.340710
1769762660839,3.781258,5.973083,2.650649,0.336892,0.606283,0.268017
1769762660859,4.402794,8.317451,6.807580,-0.049022,0.206472,0.256410
1769762660877,-2.047658,7.377670,7.782656,-0.047647,0.146302,-0.363923
1769762660899,4.470391,4.408177,6.479764,-0.044135,0.075595,-0.009621
1769762660919,5.085945,9.466604,7.460821,0.034667,0.106138,-0.512668
1769762660939,3.013760,3.724428,7.560721,-0.199142,-0.169820,-0.605214
1769762660959,4.462614,6.331409,6.601798,-0.125227,-0.207083,-0.917213
1769762660982,4.091727,8.254640,3.284747,-0.285885,-0.414472,-1.139568
1769762661000,3.829713,4.634897,9.516854,-0.580780,-0.676991,-1.220355
1769762661022,1.855634,7.457232,4.737191,-0.291077,-0.578184,-1.709810
1769762661043,-0.671785,7.856833,6.387042,-0.394008,-0.722500,-1.814879
1769762661061,0.781257,5.905486,7.016953,-0.517708,-0.847422,-1.613752
1769762661083,-1.420738,9.792028,3.931408,-0.290313,-0.791986,-1.578933
1769762661102,1.353739,5.578866,10.593026,-0.504116,-0.748004,-1.393841
1769762661124,0.930210,6.100502,6.501299,-0.078496,-0.577725,-1.391550
1769762661143,0.305085,9.867402,5.417949,-0.368657,-0.784198,-1.303280
1769762661167,2.522633,4.338786,7.727023,-0.291688,-0.734412,-1.256702
1769762661184,0.660419,6.618547,6.480960,-0.425925,-0.820391,-1.155603
1769762661203,-0.175872,9.960723,4.490730,-0.315817,-0.791528,-1.375820
1769762661226,3.059224,3.045465,10.802398,-0.598342,-0.850629,-1.117730
1769762661244,-2.313261,6.627521,7.955537,-0.168293,-0.676075,-1.170722
1769762661267,-3.930211,7.834101,8.505288,-0.103389,-0.662483,-1.380096
1769762661286,-2.578266,6.413363,6.470192,-0.131030,-0.680351,-0.744644
1769762661307,0.397209,6.394220,8.067402,0.077580,-0.510988,-0.554665
1769762661327,-3.598805,10.092926,5.207380,0.016646,-0.450513,-0.284205
1769762661348,2.284547,6.034698,8.013563,0.093004,-0.319330,-0.089644
1769762661367,-0.084945,7.724630,4.712066,0.222202,-0.121257,0.002596
1769762661389,-0.314656,10.319048,6.924829,0.196851,-0.058490,0.119577
1769762661408,-0.942772,5.862415,7.439286,0.123242,-0.001374,0.563065
1769762661427,-3.188436,8.233105,8.505288,0.250455,0.221744,0.408669
1769762661449,0.853639,5.609375,9.586246,0.239459,0.315359,0.912327
1769762661468,-0.562313,3.530012,11.063814,0.249844,0.530841,1.228449
1769762661490,1.103091,4.905885,10.028918,0.126144,0.530078,1.737910
1769762661509,-0.302094,5.053641,8.745169,0.540310,0.824209,1.471726
1769762661531,1.421337,6.495317,4.146163,0.488997,0.830165,1.972941
1769762661550,2.338386,6.551548,7.857431,0.299629,0.859181,1.815185
1769762661572,2.260021,6.533004,4.115057,0.244346,0.780991,1.673922
1769762661591,2.038685,6.105885,5.477171,0.345444,0.769079,1.331074
1769762661613,1.127618,6.998408,6.899704,0.176845,0.609948,1.229823
1769762661631,2.706282,7.411170,6.010770,0.291382,0.586277,1.103527
1769762661650,2.478366,5.508278,7.158129,0.038332,0.262977,0.685238
1769762661673,2.672185,5.977869,5.409574,-0.044135,0.063530,0.249080
1769762661691,1.695913,8.260024,7.328019,0.189826,0.148135,0.211970
1769762661714,-2.033899,8.831310,5.283352,-0.006720,0.077885,0.166002
1769762661733,3.111268,3.492923,10.604392,0.105069,0.076205,0.471129
1769762661754,2.155933,7.884949,7.304689,-0.026267,0.081703,0.251982
1769762661775,4.684548,6.195018,6.225526,0.203876,0.359036,0.642019
1769762661793,1.395016,6.369694,7.082755,0.149356,0.404851,0.636216
1769762661815,-0.976272,6.870392,7.456634,0.174860,0.453262,0.757167
1769762661838,0.081356,6.671788,7.392625,0.239001,0.484263,0.920879
1769762661855,1.316651,7.335198,5.827121,0.301309,0.572228,1.026406
1769762661877,2.311467,6.966703,5.836094,0.336587,0.649960,1.125518
1769762661896,1.210768,7.252047,5.105087,0.422260,0.676685,1.055269
1769762661918,0.732204,9.720842,3.991228,0.399964,0.633161,0.981507
1769762661940,1.474577,4.914259,9.097511,0.167682,0.481514,0.929278
1769762661957,1.986043,7.310073,4.491328,0.329256,0.576198,0.728304
1769762661979,3.732803,6.070591,7.202994,0.155007,0.423329,0.828943
1769762661998,3.803990,5.683552,5.276174,0.122937,0.437379,0.728609
1769762662018,3.504887,8.277371,11.818749,-0.021075,0.380263,0.745408
1769762662039,2.180460,5.982655,6.803393,0.340863,0.604298,0.645837
1769762662058,2.587838,6.311668,5.922834,0.490524,0.675464,0.610712
1769762662080,1.752743,8.247461,4.495515,0.231060,0.481667,0.614072
1769762662099,1.964507,7.176673,6.791429,0.117591,0.403782,0.520762
1769762662120,3.265007,6.499505,6.161518,0.105985,0.344375,0.458759
1769762662143,1.959123,7.406982,5.602196,0.171042,0.365908,0.354607
1769762662160,1.342373,7.127620,5.563313,0.108123,0.314748,0.333532
1769762662182,1.923231,6.576075,6.333203,0.062308,0.284358,0.320093
1769762662203,2.562115,7.418348,7.399804,0.063530,0.292299,0.311236
1769762662221,2.994019,6.844669,6.714859,0.152563,0.310625,0.314137
1769762662243,3.419942,6.319445,6.355337,0.208305,0.358425,0.267406
1769762662263,2.830709,6.756733,7.058228,0.074526,0.260534,0.207847
1769762662284,2.772683,7.143174,4.499105,0.103542,0.247858,0.188605
1769762662303,3.836891,6.568896,7.602596,-0.060476,0.168599,0.124464
1769762662322,3.372684,7.025327,6.199803,0.135307,0.252440,0.038179
1769762662342,2.673979,6.772286,6.083153,0.006872,0.135459,-0.026420
1769762662365,2.669792,6.792625,6.042475,0.075136,0.141873,-0.141415
1769762662383,2.680560,6.807580,6.856633,-0.186925,-0.046426,-0.186772
1769762662407,3.498905,6.259026,6.532406,-0.039553,0.003818,-0.298560
1769762662427,2.620141,7.461419,5.380262,-0.043830,-0.044593,-0.356287
1769762662445,3.046661,6.989435,6.793223,-0.136834,-0.065668,-0.382249
1769762662469,2.312065,6.948757,6.847660,0.017562,0.009316,-0.464868
1769762662487,2.051247,6.924231,5.600401,-0.099876,-0.114690,-0.400116
1769762662508,2.778067,6.797411,6.677172,-0.154549,-0.149967,-0.427758
1769762662527,1.324427,7.484749,2.347957,-0.047189,-0.118050,-0.539394
1769762662546,2.423929,6.606583,6.677770,-0.180969,-0.157909,-0.519388
1769762662572,4.356133,7.553543,12.072987,-0.100945,-0.133321,-0.501978
1769762662587,3.619144,5.506483,7.265208,-0.199295,-0.191964,-0.416610
1769762662609,-0.282353,6.735796,6.408577,-0.374918,-0.447306,-0.680351
1769762662627,2.528615,7.669595,1.958525,0.137597,-0.229380,-0.670730
1769762662651,2.625525,7.409974,8.137392,-0.418901,-0.267406,-0.585514
1769762662671,0.230309,6.061618,5.581259,-0.214108,-0.367893,-0.614683
1769762662692,0.658624,7.502097,5.975476,-0.209221,-0.337045,-0.630718
1769762662711,0.307478,6.997810,6.050850,-0.139430,-0.296880,-0.549778
1769762662730,-0.448056,7.318448,6.935596,-0.100335,-0.135765,-0.154091
1769762662750,-0.349352,7.298707,6.538986,-0.051313,-0.093768,-0.010996
1769762662773,0.116052,7.372287,6.830312,0.045204,0.000305,0.130725
1769762662791,0.016152,7.834101,7.725228,0.209985,0.306501,0.624457
1769762662814,1.509273,6.752545,7.678568,0.047342,0.319635,0.766941
1769762662833,0.892523,7.880761,8.042277,0.228463,0.522748,0.947451
1769762662852,0.879961,6.692725,6.245865,0.270155,0.651335,1.145982
1769762662876,2.332404,6.522236,8.718249,0.282220,0.663094,1.171180
1769762662894,2.540580,6.637690,5.109274,0.358578,0.661719,1.163697
1769762662912,3.815954,6.707680,7.583453,0.300393,0.681572,1.071609
1769762662934,3.175276,6.513862,3.878167,0.341015,0.629038,0.811228
1769762662954,3.470191,6.127420,8.676973,0.163406,0.543517,0.707076
1769762662976,4.233501,7.017550,5.407779,0.150425,0.315970,0.252898
1769762662994,3.945166,6.267401,7.013961,-0.076816,0.095600,0.001222
1769762663016,3.692724,5.882754,6.180063,-0.047189,0.023213,-0.320704
1769762663035,3.195615,7.074978,6.260222,-0.113010,-0.112705,-0.457538
1769762663057,2.353939,6.603592,7.891529,-0.255036,-0.219759,-0.547182
1769762663076,0.627518,6.344569,5.978467,-0.107512,-0.155923,-0.659581
1769762663098,0.715454,8.059625,7.396215,-0.163254,-0.181732,-0.527176
1769762663117,-0.418744,7.264011,6.526424,-0.135765,-0.115759,-0.336281
1769762663135,-0.053839,6.863812,7.110272,-0.028405,-0.049633,-0.152105
1769762663157,-0.247059,7.801798,6.732805,0.061239,0.056047,0.006720
1769762663176,0.978664,6.881758,7.001997,0.085216,0.118508,0.206625
1769762663199,2.041078,6.616753,6.896115,0.060323,0.181885,0.331852
1769762663218,1.904687,6.951748,6.370292,0.077274,0.228311,0.371558
1769762663239,1.703690,6.730412,6.934998,0.115759,0.251065,0.358119
1769762663258,2.900101,6.214160,6.008378,0.138666,0.224035,0.328034
1769762663281,3.226123,9.674182,3.165704,0.154854,0.242361,0.221438
1769762663299,3.899105,5.900103,10.134202,-0.062003,0.165239,0.305585
1769762663321,0.422333,5.563313,6.597610,-0.021533,0.063835,-0.124158
1769762663341,3.339782,6.583253,7.905288,0.133169,0.149662,0.027642
1769762663359,1.988436,6.485746,6.266802,-0.095142,-0.018326,-0.052840
1769762663381,1.774876,7.168298,7.007381,-0.043982,-0.004429,-0.058032
1769762663400,0.707677,6.928418,5.051847,-0.022297,0.026573,-0.080329
1769762663422,0.230309,7.459026,8.056634,-0.095600,-0.014050,-0.034361
1769762663441,-0.023330,7.344769,6.789036,0.094073,0.040470,-0.024740
1769762663462,0.824926,7.409375,5.787640,-0.026878,0.027183,0.122020
1769762663485,-0.151944,7.733603,5.511269,0.048258,0.157909,0.250607
1769762663503,-0.048455,6.954739,7.039086,0.092393,0.245415,0.426842
1769762663522,0.672981,7.126424,6.555138,0.132558,0.301920,0.587957
1769762663544,0.471386,6.758528,6.495317,0.107359,0.380416,0.684016
1769762663563,1.709074,6.951748,7.672586,0.166613,0.425009,0.787710
1769762663587,2.283949,6.415756,4.937590,0.236863,0.472504,0.846506
1769762663604,2.888735,7.076175,6.313463,0.224493,0.523511,0.856432
1769762663627,3.123232,7.093523,7.280163,0.342390,0.589026,0.728456
1769762663646,3.161517,6.709475,4.092325,0.340710,0.509767,0.614988
1769762663668,4.106682,7.846663,5.864808,0.115912,0.349109,0.438448
1769762663687,4.521837,7.497910,7.225726,0.092088,0.340710,0.141415
1769762663706,3.815954,6.264410,6.092725,0.180816,0.272446,-0.091630
1769762663727,2.531606,6.394220,5.202595,-0.129351,-0.041844,-0.370031
1769762663747,3.903890,6.430711,6.898508,-0.292452,-0.219606,-0.550389
1769762663769,1.785644,7.716255,7.599007,-0.006261,-0.064904,-0.893390
1769762663787,1.671985,6.978667,6.016753,-0.384998,-0.410196,-0.758541
1769762663809,0.705284,7.485946,7.305886,-0.209068,-0.359647,-0.922253
1769762663828,0.030508,7.916654,5.732007,-0.310930,-0.418901,-0.755334
1769762663850,-0.091525,7.888538,6.570093,-0.237779,-0.313679,-0.647517
1769762663869,0.273380,7.320841,6.292525,-0.211817,-0.279929,-0.472504
1769762663888,0.796212,8.036893,8.308478,-0.062461,-0.196393,-0.315970
1769762663910,-0.783649,7.475776,5.968896,0.046578,-0.078496,-0.161726
1769762663929,0.921237,6.616155,8.010572,0.026114,-0.013592,0.071013
1769762663951,0.857827,6.876972,5.344967,0.148593,0.059865,0.257174
